,HCPID,Trial,RunNumber,TrialType,RunTrialNumber,Block,CurrentResponse,QuestionMark.ACC,RT,QuestionMark.OnsetDelay,ConsecSameResp,ConsecLargerGuesses,ConsecSmallerGuesses,ConsecRTLess200,FutureResponse,PastResponse,ResponseSwitch,PreviousFeedback,BlockType,BlockTypeCoded
1,100307_fnca,1,1,Reward,2,5,2.0,0,380,27,1,0,1,0,3.0,,1.0,,MostlyReward,MostlyReward
2,100307_fnca,2,1,Reward,3,5,3.0,0,336,13,1,1,0,0,3.0,2.0,0.0,Reward,MostlyReward,MostlyReward
3,100307_fnca,3,1,Punishment,4,5,3.0,0,260,14,2,2,0,0,3.0,3.0,0.0,Reward,MostlyReward,MostlyReward
4,100307_fnca,4,1,Reward,5,5,3.0,0,231,13,3,3,0,0,2.0,3.0,1.0,Punishment,MostlyReward,MostlyReward
5,100307_fnca,5,1,Reward,6,5,2.0,0,292,13,1,0,1,0,3.0,3.0,1.0,Reward,MostlyReward,MostlyReward
6,100307_fnca,6,1,Reward,7,5,3.0,0,351,14,1,1,0,0,2.0,2.0,1.0,Reward,MostlyReward,MostlyReward
7,100307_fnca,7,1,Neutral,8,5,2.0,0,309,14,1,0,1,0,2.0,3.0,0.0,Reward,MostlyReward,MostlyReward
8,100307_fnca,8,1,Reward,9,5,2.0,0,286,13,2,0,2,0,,2.0,,Neutral,MostlyReward,MostlyReward
9,100307_fnca,10,1,Reward,10,5,2.0,0,708,13,3,0,3,0,3.0,,1.0,,MostlyPunishment,MostlyPunishment
10,100307_fnca,11,1,Punishment,11,5,3.0,0,252,13,1,1,0,0,3.0,2.0,0.0,Reward,MostlyPunishment,MostlyPunishment
11,100307_fnca,12,1,Punishment,12,5,3.0,0,342,13,2,2,0,0,3.0,3.0,0.0,Punishment,MostlyPunishment,MostlyPunishment
12,100307_fnca,13,1,Punishment,13,5,3.0,0,280,14,3,3,0,0,3.0,3.0,0.0,Punishment,MostlyPunishment,MostlyPunishment
13,100307_fnca,14,1,Neutral,14,5,3.0,0,455,13,4,4,0,0,2.0,3.0,1.0,Punishment,MostlyPunishment,MostlyPunishment
14,100307_fnca,15,1,Punishment,15,5,2.0,0,265,13,1,0,1,0,2.0,3.0,0.0,Neutral,MostlyPunishment,MostlyPunishment
15,100307_fnca,16,1,Punishment,16,5,2.0,0,364,13,2,0,2,0,3.0,2.0,1.0,Punishment,MostlyPunishment,MostlyPunishment
16,100307_fnca,17,1,Punishment,17,5,3.0,0,273,13,1,1,0,0,,2.0,,Punishment,MostlyPunishment,MostlyPunishment
17,100307_fnca,19,1,Punishment,18,5,2.0,0,693,13,1,0,1,0,2.0,,0.0,,MostlyPunishment,MostlyPunishment
18,100307_fnca,20,1,Punishment,19,5,2.0,0,297,13,2,0,2,0,3.0,2.0,1.0,Punishment,MostlyPunishment,MostlyPunishment
19,100307_fnca,21,1,Punishment,20,5,3.0,0,294,13,1,1,0,0,2.0,2.0,1.0,Punishment,MostlyPunishment,MostlyPunishment
20,100307_fnca,22,1,Neutral,21,5,2.0,0,299,14,1,0,1,0,3.0,3.0,1.0,Punishment,MostlyPunishment,MostlyPunishment
21,100307_fnca,23,1,Punishment,22,5,3.0,0,509,13,1,1,0,0,2.0,2.0,1.0,Neutral,MostlyPunishment,MostlyPunishment
22,100307_fnca,24,1,Neutral,23,5,2.0,0,222,13,1,0,1,0,2.0,3.0,0.0,Punishment,MostlyPunishment,MostlyPunishment
23,100307_fnca,25,1,Punishment,24,5,2.0,0,305,14,2,0,2,0,3.0,2.0,1.0,Neutral,MostlyPunishment,MostlyPunishment
24,100307_fnca,26,1,Punishment,25,5,3.0,0,530,13,1,1,0,0,,2.0,,Punishment,MostlyPunishment,MostlyPunishment
25,100307_fnca,28,1,Reward,26,5,2.0,0,405,14,1,0,1,0,3.0,,1.0,,MostlyReward,MostlyReward
26,100307_fnca,29,1,Reward,27,5,3.0,0,293,14,1,1,0,0,3.0,2.0,0.0,Reward,MostlyReward,MostlyReward
27,100307_fnca,30,1,Punishment,28,5,3.0,0,264,13,2,2,0,0,3.0,3.0,0.0,Reward,MostlyReward,MostlyReward
28,100307_fnca,31,1,Reward,29,5,3.0,0,198,13,3,3,0,1,2.0,3.0,1.0,Punishment,MostlyReward,MostlyReward
29,100307_fnca,32,1,Punishment,30,5,2.0,0,224,13,1,0,1,0,2.0,3.0,0.0,Reward,MostlyReward,MostlyReward
30,100307_fnca,33,1,Reward,31,5,2.0,0,292,14,2,0,2,0,2.0,2.0,0.0,Punishment,MostlyReward,MostlyReward
31,100307_fnca,34,1,Reward,32,5,2.0,0,260,14,3,0,3,0,3.0,2.0,1.0,Reward,MostlyReward,MostlyReward
32,100307_fnca,35,1,Reward,32,5,3.0,0,225,13,1,1,0,0,,2.0,,Reward,MostlyReward,MostlyReward
33,100307_fnca,1,2,Punishment,2,5,3.0,0,289,27,1,1,0,0,3.0,,0.0,,,MostlyPunishment
34,100307_fnca,2,2,Punishment,3,5,3.0,0,256,13,2,2,0,0,3.0,3.0,0.0,Punishment,,MostlyPunishment
35,100307_fnca,3,2,Reward,4,5,3.0,0,221,13,3,3,0,0,2.0,3.0,1.0,Punishment,,MostlyPunishment
36,100307_fnca,4,2,Punishment,5,5,2.0,0,365,14,1,0,1,0,2.0,3.0,0.0,Reward,,MostlyPunishment
37,100307_fnca,5,2,Reward,6,5,2.0,0,330,14,2,0,2,0,2.0,2.0,0.0,Punishment,,MostlyPunishment
38,100307_fnca,6,2,Punishment,7,5,2.0,0,915,13,3,0,3,0,3.0,2.0,1.0,Reward,,MostlyPunishment
39,100307_fnca,7,2,Punishment,8,5,3.0,0,315,14,1,1,0,0,3.0,2.0,0.0,Punishment,,MostlyPunishment
40,100307_fnca,8,2,Punishment,9,5,3.0,0,214,13,2,2,0,0,,3.0,,Punishment,,MostlyPunishment
41,100307_fnca,10,2,Reward,10,5,3.0,0,567,13,3,3,0,0,2.0,,1.0,,,MostlyReward
42,100307_fnca,11,2,Neutral,11,5,2.0,0,272,14,1,0,1,0,3.0,3.0,1.0,Reward,,MostlyReward
43,100307_fnca,12,2,Reward,12,5,3.0,0,405,13,1,1,0,0,2.0,2.0,1.0,Neutral,,MostlyReward
44,100307_fnca,13,2,Reward,13,5,2.0,0,592,13,1,0,1,0,3.0,3.0,1.0,Reward,,MostlyReward
45,100307_fnca,14,2,Reward,14,5,3.0,0,424,13,1,1,0,0,3.0,2.0,0.0,Reward,,MostlyReward
46,100307_fnca,15,2,Reward,15,5,3.0,0,289,13,2,2,0,0,2.0,3.0,1.0,Reward,,MostlyReward
47,100307_fnca,16,2,Neutral,16,5,2.0,0,298,14,1,0,1,0,2.0,3.0,0.0,Reward,,MostlyReward
48,100307_fnca,17,2,Reward,17,5,2.0,0,506,14,2,0,2,0,,2.0,,Neutral,,MostlyReward
49,100307_fnca,19,2,Punishment,18,5,3.0,0,527,13,1,1,0,0,2.0,,1.0,,,MostlyPunishment
50,100307_fnca,20,2,Punishment,19,5,2.0,0,294,13,1,0,1,0,2.0,3.0,0.0,Punishment,,MostlyPunishment
51,100307_fnca,21,2,Reward,20,5,2.0,0,345,13,2,0,2,0,3.0,2.0,1.0,Punishment,,MostlyPunishment
52,100307_fnca,22,2,Punishment,21,5,3.0,0,374,13,1,1,0,0,2.0,2.0,1.0,Reward,,MostlyPunishment
53,100307_fnca,23,2,Reward,22,5,2.0,0,295,13,1,0,1,0,2.0,3.0,0.0,Punishment,,MostlyPunishment
54,100307_fnca,24,2,Punishment,23,5,2.0,0,246,14,2,0,2,0,3.0,2.0,1.0,Reward,,MostlyPunishment
55,100307_fnca,25,2,Punishment,24,5,3.0,0,297,13,1,1,0,0,3.0,2.0,0.0,Punishment,,MostlyPunishment
56,100307_fnca,26,2,Punishment,25,5,3.0,0,263,13,2,2,0,0,,3.0,,Punishment,,MostlyPunishment
57,100307_fnca,28,2,Reward,26,5,2.0,0,524,13,1,0,1,0,2.0,,0.0,,MostlyReward,MostlyReward
58,100307_fnca,29,2,Reward,27,5,2.0,0,269,13,2,0,2,0,3.0,2.0,1.0,Reward,MostlyReward,MostlyReward
59,100307_fnca,30,2,Punishment,28,5,3.0,0,298,14,1,1,0,0,2.0,2.0,1.0,Reward,MostlyReward,MostlyReward
60,100307_fnca,31,2,Reward,29,5,2.0,0,230,13,1,0,1,0,2.0,3.0,0.0,Punishment,MostlyReward,MostlyReward
61,100307_fnca,32,2,Punishment,30,5,2.0,0,489,13,2,0,2,0,2.0,2.0,0.0,Reward,MostlyReward,MostlyReward
62,100307_fnca,33,2,Reward,31,5,2.0,0,274,14,3,0,3,0,3.0,2.0,1.0,Punishment,MostlyReward,MostlyReward
63,100307_fnca,34,2,Reward,32,5,3.0,0,262,14,1,1,0,0,3.0,2.0,0.0,Reward,MostlyReward,MostlyReward
64,100307_fnca,35,2,Reward,32,5,3.0,0,304,13,2,2,0,0,,3.0,,Reward,MostlyReward,MostlyReward
65,100408_fnca,1,1,Reward,2,5,,1,0,26,0,0,0,0,2.0,,,,MostlyReward,MostlyReward
66,100408_fnca,2,1,Reward,3,5,2.0,0,527,13,1,0,1,0,3.0,,1.0,Reward,MostlyReward,MostlyReward
67,100408_fnca,3,1,Punishment,4,5,3.0,0,581,14,1,1,0,0,3.0,2.0,0.0,Reward,MostlyReward,MostlyReward
68,100408_fnca,4,1,Reward,5,5,3.0,0,532,13,2,2,0,0,3.0,3.0,0.0,Punishment,MostlyReward,MostlyReward
69,100408_fnca,5,1,Reward,6,5,3.0,0,904,13,3,3,0,0,2.0,3.0,1.0,Reward,MostlyReward,MostlyReward
70,100408_fnca,6,1,Reward,7,5,2.0,0,624,13,1,0,1,0,3.0,3.0,1.0,Reward,MostlyReward,MostlyReward
71,100408_fnca,7,1,Neutral,8,5,3.0,0,809,14,1,1,0,0,3.0,2.0,0.0,Reward,MostlyReward,MostlyReward
72,100408_fnca,8,1,Reward,9,5,3.0,0,801,14,2,2,0,0,,3.0,,Neutral,MostlyReward,MostlyReward
73,100408_fnca,10,1,Reward,10,5,2.0,0,1045,13,1,0,1,0,3.0,,1.0,,MostlyPunishment,MostlyPunishment
74,100408_fnca,11,1,Punishment,11,5,3.0,0,685,13,1,1,0,0,2.0,2.0,1.0,Reward,MostlyPunishment,MostlyPunishment
75,100408_fnca,12,1,Punishment,12,5,2.0,0,1160,13,1,0,1,0,,3.0,,Punishment,MostlyPunishment,MostlyPunishment
76,100408_fnca,13,1,Punishment,13,5,,1,0,13,1,0,1,0,3.0,2.0,,Punishment,MostlyPunishment,MostlyPunishment
77,100408_fnca,14,1,Neutral,14,5,3.0,0,410,14,1,1,0,0,3.0,,0.0,Punishment,MostlyPunishment,MostlyPunishment
78,100408_fnca,15,1,Punishment,15,5,3.0,0,881,13,2,2,0,0,3.0,3.0,0.0,Neutral,MostlyPunishment,MostlyPunishment
79,100408_fnca,16,1,Punishment,16,5,3.0,0,391,13,3,3,0,0,3.0,3.0,0.0,Punishment,MostlyPunishment,MostlyPunishment
80,100408_fnca,17,1,Punishment,17,5,3.0,0,501,13,4,4,0,0,,3.0,,Punishment,MostlyPunishment,MostlyPunishment
81,100408_fnca,19,1,Punishment,18,5,2.0,0,393,13,1,0,1,0,3.0,,1.0,,MostlyPunishment,MostlyPunishment
82,100408_fnca,20,1,Punishment,19,5,3.0,0,344,13,1,1,0,0,3.0,2.0,0.0,Punishment,MostlyPunishment,MostlyPunishment
83,100408_fnca,21,1,Punishment,20,5,3.0,0,565,13,2,2,0,0,2.0,3.0,1.0,Punishment,MostlyPunishment,MostlyPunishment
84,100408_fnca,22,1,Neutral,21,5,2.0,0,501,13,1,0,1,0,3.0,3.0,1.0,Punishment,MostlyPunishment,MostlyPunishment
85,100408_fnca,23,1,Punishment,22,5,3.0,0,476,13,1,1,0,0,2.0,2.0,1.0,Neutral,MostlyPunishment,MostlyPunishment
86,100408_fnca,24,1,Neutral,23,5,2.0,0,474,13,1,0,1,0,3.0,3.0,1.0,Punishment,MostlyPunishment,MostlyPunishment
87,100408_fnca,25,1,Punishment,24,5,3.0,0,612,13,1,1,0,0,2.0,2.0,1.0,Neutral,MostlyPunishment,MostlyPunishment
88,100408_fnca,26,1,Punishment,25,5,2.0,0,567,13,1,0,1,0,,3.0,,Punishment,MostlyPunishment,MostlyPunishment
89,100408_fnca,28,1,Reward,26,5,3.0,0,663,13,1,1,0,0,3.0,,0.0,,MostlyReward,MostlyReward
90,100408_fnca,29,1,Reward,27,5,3.0,0,420,14,2,2,0,0,2.0,3.0,1.0,Reward,MostlyReward,MostlyReward
91,100408_fnca,30,1,Punishment,28,5,2.0,0,291,13,1,0,1,0,2.0,3.0,0.0,Reward,MostlyReward,MostlyReward
92,100408_fnca,31,1,Reward,29,5,2.0,0,715,13,2,0,2,0,2.0,2.0,0.0,Punishment,MostlyReward,MostlyReward
93,100408_fnca,32,1,Punishment,30,5,2.0,0,1058,14,3,0,3,0,3.0,2.0,1.0,Reward,MostlyReward,MostlyReward
94,100408_fnca,33,1,Reward,31,5,3.0,0,659,14,1,1,0,0,3.0,2.0,0.0,Punishment,MostlyReward,MostlyReward
95,100408_fnca,34,1,Reward,32,5,3.0,0,690,13,2,2,0,0,2.0,3.0,1.0,Reward,MostlyReward,MostlyReward
96,100408_fnca,35,1,Reward,32,5,2.0,0,359,13,1,0,1,0,,3.0,,Reward,MostlyReward,MostlyReward
97,100408_fnca,1,2,Punishment,2,5,3.0,0,586,26,1,1,0,0,2.0,,1.0,,,MostlyPunishment
98,100408_fnca,2,2,Punishment,3,5,2.0,0,469,13,1,0,1,0,3.0,3.0,1.0,Punishment,,MostlyPunishment
99,100408_fnca,3,2,Reward,4,5,3.0,0,658,13,1,1,0,0,3.0,2.0,0.0,Punishment,,MostlyPunishment
100,100408_fnca,4,2,Punishment,5,5,3.0,0,709,13,2,2,0,0,3.0,3.0,0.0,Reward,,MostlyPunishment
101,100408_fnca,5,2,Reward,6,5,3.0,0,547,13,3,3,0,0,3.0,3.0,0.0,Punishment,,MostlyPunishment
102,100408_fnca,6,2,Punishment,7,5,3.0,0,666,14,4,4,0,0,3.0,3.0,0.0,Reward,,MostlyPunishment
103,100408_fnca,7,2,Punishment,8,5,3.0,0,420,14,5,5,0,0,2.0,3.0,1.0,Punishment,,MostlyPunishment
104,100408_fnca,8,2,Punishment,9,5,2.0,0,229,13,1,0,1,0,,3.0,,Punishment,,MostlyPunishment
105,100408_fnca,10,2,Reward,10,5,2.0,0,784,13,2,0,2,0,3.0,,1.0,,,MostlyReward
106,100408_fnca,11,2,Neutral,11,5,3.0,0,349,13,1,1,0,0,2.0,2.0,1.0,Reward,,MostlyReward
107,100408_fnca,12,2,Reward,12,5,2.0,0,299,13,1,0,1,0,2.0,3.0,0.0,Neutral,,MostlyReward
108,100408_fnca,13,2,Reward,13,5,2.0,0,403,13,2,0,2,0,3.0,2.0,1.0,Reward,,MostlyReward
109,100408_fnca,14,2,Reward,14,5,3.0,0,324,13,1,1,0,0,3.0,2.0,0.0,Reward,,MostlyReward
110,100408_fnca,15,2,Reward,15,5,3.0,0,289,13,2,2,0,0,2.0,3.0,1.0,Reward,,MostlyReward
111,100408_fnca,16,2,Neutral,16,5,2.0,0,559,14,1,0,1,0,2.0,3.0,0.0,Reward,,MostlyReward
112,100408_fnca,17,2,Reward,17,5,2.0,0,329,14,2,0,2,0,,2.0,,Neutral,,MostlyReward
113,100408_fnca,19,2,Punishment,18,5,2.0,0,924,14,3,0,3,0,3.0,,1.0,,,MostlyPunishment
114,100408_fnca,20,2,Punishment,19,5,3.0,0,388,13,1,1,0,0,3.0,2.0,0.0,Punishment,,MostlyPunishment
115,100408_fnca,21,2,Reward,20,5,3.0,0,407,14,2,2,0,0,3.0,3.0,0.0,Punishment,,MostlyPunishment
116,100408_fnca,22,2,Punishment,21,5,3.0,0,258,13,3,3,0,0,2.0,3.0,1.0,Reward,,MostlyPunishment
117,100408_fnca,23,2,Reward,22,5,2.0,0,293,14,1,0,1,0,3.0,3.0,1.0,Punishment,,MostlyPunishment
118,100408_fnca,24,2,Punishment,23,5,3.0,0,696,13,1,1,0,0,2.0,2.0,1.0,Reward,,MostlyPunishment
119,100408_fnca,25,2,Punishment,24,5,2.0,0,559,14,1,0,1,0,2.0,3.0,0.0,Punishment,,MostlyPunishment
120,100408_fnca,26,2,Punishment,25,5,2.0,0,430,13,2,0,2,0,,2.0,,Punishment,,MostlyPunishment
121,100408_fnca,28,2,Reward,26,5,3.0,0,753,13,1,1,0,0,3.0,,0.0,,MostlyReward,MostlyReward
122,100408_fnca,29,2,Reward,27,5,3.0,0,643,13,2,2,0,0,2.0,3.0,1.0,Reward,MostlyReward,MostlyReward
123,100408_fnca,30,2,Punishment,28,5,2.0,0,340,13,1,0,1,0,2.0,3.0,0.0,Reward,MostlyReward,MostlyReward
124,100408_fnca,31,2,Reward,29,5,2.0,0,318,14,2,0,2,0,3.0,2.0,1.0,Punishment,MostlyReward,MostlyReward
125,100408_fnca,32,2,Punishment,30,5,3.0,0,846,13,1,1,0,0,2.0,2.0,1.0,Reward,MostlyReward,MostlyReward
126,100408_fnca,33,2,Reward,31,5,2.0,0,335,13,1,0,1,0,3.0,3.0,1.0,Punishment,MostlyReward,MostlyReward
127,100408_fnca,34,2,Reward,32,5,3.0,0,318,14,1,1,0,0,2.0,2.0,1.0,Reward,MostlyReward,MostlyReward
128,100408_fnca,35,2,Reward,32,5,2.0,0,270,13,1,0,1,0,,3.0,,Reward,MostlyReward,MostlyReward
129,101006_fnca,1,1,Reward,2,5,2.0,0,734,26,1,0,1,0,2.0,,0.0,,MostlyReward,MostlyReward
130,101006_fnca,2,1,Reward,3,5,2.0,0,855,13,2,0,2,0,3.0,2.0,1.0,Reward,MostlyReward,MostlyReward
131,101006_fnca,3,1,Punishment,4,5,3.0,0,750,13,1,1,0,0,2.0,2.0,1.0,Reward,MostlyReward,MostlyReward
132,101006_fnca,4,1,Reward,5,5,2.0,0,619,13,1,0,1,0,2.0,3.0,0.0,Punishment,MostlyReward,MostlyReward
133,101006_fnca,5,1,Reward,6,5,2.0,0,615,13,2,0,2,0,2.0,2.0,0.0,Reward,MostlyReward,MostlyReward
134,101006_fnca,6,1,Reward,7,5,2.0,0,445,13,3,0,3,0,2.0,2.0,0.0,Reward,MostlyReward,MostlyReward
135,101006_fnca,7,1,Neutral,8,5,2.0,0,912,13,4,0,4,0,3.0,2.0,1.0,Reward,MostlyReward,MostlyReward
136,101006_fnca,8,1,Reward,9,5,3.0,0,432,13,1,1,0,0,,2.0,,Neutral,MostlyReward,MostlyReward
137,101006_fnca,10,1,Reward,10,5,3.0,0,602,13,2,2,0,0,2.0,,1.0,,MostlyPunishment,MostlyPunishment
138,101006_fnca,11,1,Punishment,11,5,2.0,0,382,13,1,0,1,0,3.0,3.0,1.0,Reward,MostlyPunishment,MostlyPunishment
139,101006_fnca,12,1,Punishment,12,5,3.0,0,599,14,1,1,0,0,2.0,2.0,1.0,Punishment,MostlyPunishment,MostlyPunishment
140,101006_fnca,13,1,Punishment,13,5,2.0,0,390,14,1,0,1,0,3.0,3.0,1.0,Punishment,MostlyPunishment,MostlyPunishment
141,101006_fnca,14,1,Neutral,14,5,3.0,0,614,14,1,1,0,0,3.0,2.0,0.0,Punishment,MostlyPunishment,MostlyPunishment
142,101006_fnca,15,1,Punishment,15,5,3.0,0,803,13,2,2,0,0,3.0,3.0,0.0,Neutral,MostlyPunishment,MostlyPunishment
143,101006_fnca,16,1,Punishment,16,5,3.0,0,359,13,3,3,0,0,2.0,3.0,1.0,Punishment,MostlyPunishment,MostlyPunishment
144,101006_fnca,17,1,Punishment,17,5,2.0,0,663,13,1,0,1,0,,3.0,,Punishment,MostlyPunishment,MostlyPunishment
145,101006_fnca,19,1,Punishment,18,5,3.0,0,549,13,1,1,0,0,2.0,,1.0,,MostlyPunishment,MostlyPunishment
146,101006_fnca,20,1,Punishment,19,5,2.0,0,684,13,1,0,1,0,2.0,3.0,0.0,Punishment,MostlyPunishment,MostlyPunishment
147,101006_fnca,21,1,Punishment,20,5,2.0,0,342,14,2,0,2,0,3.0,2.0,1.0,Punishment,MostlyPunishment,MostlyPunishment
148,101006_fnca,22,1,Neutral,21,5,3.0,0,436,14,1,1,0,0,3.0,2.0,0.0,Punishment,MostlyPunishment,MostlyPunishment
149,101006_fnca,23,1,Punishment,22,5,3.0,0,504,14,2,2,0,0,2.0,3.0,1.0,Neutral,MostlyPunishment,MostlyPunishment
150,101006_fnca,24,1,Neutral,23,5,2.0,0,627,13,1,0,1,0,2.0,3.0,0.0,Punishment,MostlyPunishment,MostlyPunishment
151,101006_fnca,25,1,Punishment,24,5,2.0,0,459,13,2,0,2,0,3.0,2.0,1.0,Neutral,MostlyPunishment,MostlyPunishment
152,101006_fnca,26,1,Punishment,25,5,3.0,0,604,13,1,1,0,0,,2.0,,Punishment,MostlyPunishment,MostlyPunishment
153,101006_fnca,28,1,Reward,26,5,3.0,0,539,13,2,2,0,0,3.0,,0.0,,MostlyReward,MostlyReward
154,101006_fnca,29,1,Reward,27,5,3.0,0,698,13,3,3,0,0,2.0,3.0,1.0,Reward,MostlyReward,MostlyReward
155,101006_fnca,30,1,Punishment,28,5,2.0,0,436,13,1,0,1,0,3.0,3.0,1.0,Reward,MostlyReward,MostlyReward
156,101006_fnca,31,1,Reward,29,5,3.0,0,361,14,1,1,0,0,3.0,2.0,0.0,Punishment,MostlyReward,MostlyReward
157,101006_fnca,32,1,Punishment,30,5,3.0,0,444,14,2,2,0,0,3.0,3.0,0.0,Reward,MostlyReward,MostlyReward
158,101006_fnca,33,1,Reward,31,5,3.0,0,433,14,3,3,0,0,3.0,3.0,0.0,Punishment,MostlyReward,MostlyReward
159,101006_fnca,34,1,Reward,32,5,3.0,0,771,13,4,4,0,0,2.0,3.0,1.0,Reward,MostlyReward,MostlyReward
160,101006_fnca,35,1,Reward,32,5,2.0,0,338,13,1,0,1,0,,3.0,,Reward,MostlyReward,MostlyReward
161,101006_fnca,1,2,Punishment,2,5,3.0,0,802,27,1,1,0,0,3.0,,0.0,,,MostlyPunishment
162,101006_fnca,2,2,Punishment,3,5,3.0,0,356,13,2,2,0,0,3.0,3.0,0.0,Punishment,,MostlyPunishment
163,101006_fnca,3,2,Reward,4,5,3.0,0,431,13,3,3,0,0,3.0,3.0,0.0,Punishment,,MostlyPunishment
164,101006_fnca,4,2,Punishment,5,5,3.0,0,395,13,4,4,0,0,2.0,3.0,1.0,Reward,,MostlyPunishment
165,101006_fnca,5,2,Reward,6,5,2.0,0,573,13,1,0,1,0,2.0,3.0,0.0,Punishment,,MostlyPunishment
166,101006_fnca,6,2,Punishment,7,5,2.0,0,470,14,2,0,2,0,3.0,2.0,1.0,Reward,,MostlyPunishment
167,101006_fnca,7,2,Punishment,8,5,3.0,0,430,14,1,1,0,0,3.0,2.0,0.0,Punishment,,MostlyPunishment
168,101006_fnca,8,2,Punishment,9,5,3.0,0,261,14,2,2,0,0,,3.0,,Punishment,,MostlyPunishment
169,101006_fnca,10,2,Reward,10,5,2.0,0,721,14,1,0,1,0,3.0,,1.0,,,MostlyReward
170,101006_fnca,11,2,Neutral,11,5,3.0,0,1170,14,1,1,0,0,3.0,2.0,0.0,Reward,,MostlyReward
171,101006_fnca,12,2,Reward,12,5,3.0,0,360,13,2,2,0,0,3.0,3.0,0.0,Neutral,,MostlyReward
172,101006_fnca,13,2,Reward,13,5,3.0,0,306,13,3,3,0,0,3.0,3.0,0.0,Reward,,MostlyReward
173,101006_fnca,14,2,Reward,14,5,3.0,0,967,13,4,4,0,0,3.0,3.0,0.0,Reward,,MostlyReward
174,101006_fnca,15,2,Reward,15,5,3.0,0,549,13,5,5,0,0,2.0,3.0,1.0,Reward,,MostlyReward
175,101006_fnca,16,2,Neutral,16,5,2.0,0,360,13,1,0,1,0,3.0,3.0,1.0,Reward,,MostlyReward
176,101006_fnca,17,2,Reward,17,5,3.0,0,449,13,1,1,0,0,,2.0,,Neutral,,MostlyReward
177,101006_fnca,19,2,Punishment,18,5,3.0,0,538,14,2,2,0,0,2.0,,1.0,,,MostlyPunishment
178,101006_fnca,20,2,Punishment,19,5,2.0,0,1013,13,1,0,1,0,3.0,3.0,1.0,Punishment,,MostlyPunishment
179,101006_fnca,21,2,Reward,20,5,3.0,0,336,13,1,1,0,0,3.0,2.0,0.0,Punishment,,MostlyPunishment
180,101006_fnca,22,2,Punishment,21,5,3.0,0,431,13,2,2,0,0,2.0,3.0,1.0,Reward,,MostlyPunishment
181,101006_fnca,23,2,Reward,22,5,2.0,0,507,13,1,0,1,0,2.0,3.0,0.0,Punishment,,MostlyPunishment
182,101006_fnca,24,2,Punishment,23,5,2.0,0,420,13,2,0,2,0,3.0,2.0,1.0,Reward,,MostlyPunishment
183,101006_fnca,25,2,Punishment,24,5,3.0,0,462,13,1,1,0,0,3.0,2.0,0.0,Punishment,,MostlyPunishment
184,101006_fnca,26,2,Punishment,25,5,3.0,0,284,13,2,2,0,0,,3.0,,Punishment,,MostlyPunishment
185,101006_fnca,28,2,Reward,26,5,2.0,0,713,13,1,0,1,0,3.0,,1.0,,MostlyReward,MostlyReward
186,101006_fnca,29,2,Reward,27,5,3.0,0,573,14,1,1,0,0,3.0,2.0,0.0,Reward,MostlyReward,MostlyReward
187,101006_fnca,30,2,Punishment,28,5,3.0,0,335,14,2,2,0,0,2.0,3.0,1.0,Reward,MostlyReward,MostlyReward
188,101006_fnca,31,2,Reward,29,5,2.0,0,320,13,1,0,1,0,2.0,3.0,0.0,Punishment,MostlyReward,MostlyReward
189,101006_fnca,32,2,Punishment,30,5,2.0,0,459,13,2,0,2,0,3.0,2.0,1.0,Reward,MostlyReward,MostlyReward
190,101006_fnca,33,2,Reward,31,5,3.0,0,317,13,1,1,0,0,3.0,2.0,0.0,Punishment,MostlyReward,MostlyReward
191,101006_fnca,34,2,Reward,32,5,3.0,0,315,14,2,2,0,0,3.0,3.0,0.0,Reward,MostlyReward,MostlyReward
192,101006_fnca,35,2,Reward,32,5,3.0,0,322,14,3,3,0,0,,3.0,,Reward,MostlyReward,MostlyReward
193,101107_fnca,1,1,Reward,2,5,3.0,0,888,27,1,1,0,0,2.0,,1.0,,MostlyReward,MostlyReward
194,101107_fnca,2,1,Reward,3,5,2.0,0,664,13,1,0,1,0,2.0,3.0,0.0,Reward,MostlyReward,MostlyReward
195,101107_fnca,3,1,Punishment,4,5,2.0,0,338,13,2,0,2,0,2.0,2.0,0.0,Reward,MostlyReward,MostlyReward
196,101107_fnca,4,1,Reward,5,5,2.0,0,308,13,3,0,3,0,3.0,2.0,1.0,Punishment,MostlyReward,MostlyReward
197,101107_fnca,5,1,Reward,6,5,3.0,0,328,13,1,1,0,0,2.0,2.0,1.0,Reward,MostlyReward,MostlyReward
198,101107_fnca,6,1,Reward,7,5,2.0,0,655,13,1,0,1,0,3.0,3.0,1.0,Reward,MostlyReward,MostlyReward
199,101107_fnca,7,1,Neutral,8,5,3.0,0,369,13,1,1,0,0,3.0,2.0,0.0,Reward,MostlyReward,MostlyReward
200,101107_fnca,8,1,Reward,9,5,3.0,0,216,13,2,2,0,0,,3.0,,Neutral,MostlyReward,MostlyReward
201,101107_fnca,10,1,Reward,10,5,2.0,0,681,13,1,0,1,0,2.0,,0.0,,MostlyPunishment,MostlyPunishment
202,101107_fnca,11,1,Punishment,11,5,2.0,0,416,13,2,0,2,0,3.0,2.0,1.0,Reward,MostlyPunishment,MostlyPunishment
203,101107_fnca,12,1,Punishment,12,5,3.0,0,279,14,1,1,0,0,3.0,2.0,0.0,Punishment,MostlyPunishment,MostlyPunishment
204,101107_fnca,13,1,Punishment,13,5,3.0,0,279,14,2,2,0,0,3.0,3.0,0.0,Punishment,MostlyPunishment,MostlyPunishment
205,101107_fnca,14,1,Neutral,14,5,3.0,0,167,14,3,3,0,1,3.0,3.0,0.0,Punishment,MostlyPunishment,MostlyPunishment
206,101107_fnca,15,1,Punishment,15,5,3.0,0,293,13,4,4,0,0,3.0,3.0,0.0,Neutral,MostlyPunishment,MostlyPunishment
207,101107_fnca,16,1,Punishment,16,5,3.0,0,221,13,5,5,0,0,3.0,3.0,0.0,Punishment,MostlyPunishment,MostlyPunishment
208,101107_fnca,17,1,Punishment,17,5,3.0,0,229,13,6,6,0,0,,3.0,,Punishment,MostlyPunishment,MostlyPunishment
209,101107_fnca,19,1,Punishment,18,5,2.0,0,467,14,1,0,1,0,3.0,,1.0,,MostlyPunishment,MostlyPunishment
210,101107_fnca,20,1,Punishment,19,5,3.0,0,335,14,1,1,0,0,3.0,2.0,0.0,Punishment,MostlyPunishment,MostlyPunishment
211,101107_fnca,21,1,Punishment,20,5,3.0,0,363,14,2,2,0,0,2.0,3.0,1.0,Punishment,MostlyPunishment,MostlyPunishment
212,101107_fnca,22,1,Neutral,21,5,2.0,0,338,13,1,0,1,0,3.0,3.0,1.0,Punishment,MostlyPunishment,MostlyPunishment
213,101107_fnca,23,1,Punishment,22,5,3.0,0,198,13,1,1,0,1,3.0,2.0,0.0,Neutral,MostlyPunishment,MostlyPunishment
214,101107_fnca,24,1,Neutral,23,5,3.0,0,239,13,2,2,0,0,3.0,3.0,0.0,Punishment,MostlyPunishment,MostlyPunishment
215,101107_fnca,25,1,Punishment,24,5,3.0,0,219,13,3,3,0,0,3.0,3.0,0.0,Neutral,MostlyPunishment,MostlyPunishment
216,101107_fnca,26,1,Punishment,25,5,3.0,0,265,13,4,4,0,0,,3.0,,Punishment,MostlyPunishment,MostlyPunishment
217,101107_fnca,28,1,Reward,26,5,2.0,0,669,13,1,0,1,0,2.0,,0.0,,MostlyReward,MostlyReward
218,101107_fnca,29,1,Reward,27,5,2.0,0,249,13,2,0,2,0,2.0,2.0,0.0,Reward,MostlyReward,MostlyReward
219,101107_fnca,30,1,Punishment,28,5,2.0,0,257,13,3,0,3,0,2.0,2.0,0.0,Reward,MostlyReward,MostlyReward
220,101107_fnca,31,1,Reward,29,5,2.0,0,253,13,4,0,4,0,2.0,2.0,0.0,Punishment,MostlyReward,MostlyReward
221,101107_fnca,32,1,Punishment,30,5,2.0,0,274,13,5,0,5,0,2.0,2.0,0.0,Reward,MostlyReward,MostlyReward
222,101107_fnca,33,1,Reward,31,5,2.0,0,252,14,6,0,6,0,2.0,2.0,0.0,Punishment,MostlyReward,MostlyReward
223,101107_fnca,34,1,Reward,32,5,2.0,0,372,13,7,0,7,0,2.0,2.0,0.0,Reward,MostlyReward,MostlyReward
224,101107_fnca,35,1,Reward,32,5,2.0,0,348,13,8,0,8,0,,2.0,,Reward,MostlyReward,MostlyReward
225,101107_fnca,1,2,Punishment,2,5,2.0,0,533,26,1,0,1,0,2.0,,0.0,,,MostlyPunishment
226,101107_fnca,2,2,Punishment,3,5,2.0,0,110,14,2,0,2,1,2.0,2.0,0.0,Punishment,,MostlyPunishment
227,101107_fnca,3,2,Reward,4,5,2.0,0,225,14,3,0,3,0,3.0,2.0,1.0,Punishment,,MostlyPunishment
228,101107_fnca,4,2,Punishment,5,5,3.0,0,190,13,1,1,0,1,3.0,2.0,0.0,Reward,,MostlyPunishment
229,101107_fnca,5,2,Reward,6,5,3.0,0,275,13,2,2,0,0,3.0,3.0,0.0,Punishment,,MostlyPunishment
230,101107_fnca,6,2,Punishment,7,5,3.0,0,528,13,3,3,0,0,3.0,3.0,0.0,Reward,,MostlyPunishment
231,101107_fnca,7,2,Punishment,8,5,3.0,0,204,13,4,4,0,0,3.0,3.0,0.0,Punishment,,MostlyPunishment
232,101107_fnca,8,2,Punishment,9,5,3.0,0,55,13,5,5,0,1,,3.0,,Punishment,,MostlyPunishment
233,101107_fnca,10,2,Reward,10,5,3.0,0,434,13,6,6,0,0,3.0,,0.0,,,MostlyReward
234,101107_fnca,11,2,Neutral,11,5,3.0,0,245,13,7,7,0,0,3.0,3.0,0.0,Reward,,MostlyReward
235,101107_fnca,12,2,Reward,12,5,3.0,0,226,13,8,8,0,0,3.0,3.0,0.0,Neutral,,MostlyReward
236,101107_fnca,13,2,Reward,13,5,3.0,0,274,13,9,9,0,0,3.0,3.0,0.0,Reward,,MostlyReward
237,101107_fnca,14,2,Reward,14,5,3.0,0,283,13,10,10,0,0,3.0,3.0,0.0,Reward,,MostlyReward
238,101107_fnca,15,2,Reward,15,5,3.0,0,270,14,11,11,0,0,3.0,3.0,0.0,Reward,,MostlyReward
239,101107_fnca,16,2,Neutral,16,5,3.0,0,568,13,12,12,0,0,2.0,3.0,1.0,Reward,,MostlyReward
240,101107_fnca,17,2,Reward,17,5,2.0,0,473,13,1,0,1,0,,3.0,,Neutral,,MostlyReward
241,101107_fnca,19,2,Punishment,18,5,2.0,0,733,13,2,0,2,0,3.0,,1.0,,,MostlyPunishment
242,101107_fnca,20,2,Punishment,19,5,3.0,0,213,13,1,1,0,0,3.0,2.0,0.0,Punishment,,MostlyPunishment
243,101107_fnca,21,2,Reward,20,5,3.0,0,174,13,2,2,0,1,3.0,3.0,0.0,Punishment,,MostlyPunishment
244,101107_fnca,22,2,Punishment,21,5,3.0,0,246,13,3,3,0,0,3.0,3.0,0.0,Reward,,MostlyPunishment
245,101107_fnca,23,2,Reward,22,5,3.0,0,52,13,4,4,0,1,2.0,3.0,1.0,Punishment,,MostlyPunishment
246,101107_fnca,24,2,Punishment,23,5,2.0,0,308,13,1,0,1,0,2.0,3.0,0.0,Reward,,MostlyPunishment
247,101107_fnca,25,2,Punishment,24,5,2.0,0,350,13,2,0,2,0,2.0,2.0,0.0,Punishment,,MostlyPunishment
248,101107_fnca,26,2,Punishment,25,5,2.0,0,239,13,3,0,3,0,,2.0,,Punishment,,MostlyPunishment
249,101107_fnca,28,2,Reward,26,5,2.0,0,718,13,4,0,4,0,2.0,,0.0,,MostlyReward,MostlyReward
250,101107_fnca,29,2,Reward,27,5,2.0,0,294,13,5,0,5,0,2.0,2.0,0.0,Reward,MostlyReward,MostlyReward
251,101107_fnca,30,2,Punishment,28,5,2.0,0,33,14,6,0,6,1,,2.0,,Reward,MostlyReward,MostlyReward
252,101107_fnca,31,2,Reward,29,5,,1,0,13,6,0,6,1,2.0,2.0,,Punishment,MostlyReward,MostlyReward
253,101107_fnca,32,2,Punishment,30,5,2.0,0,284,13,7,0,7,0,3.0,,1.0,Reward,MostlyReward,MostlyReward
254,101107_fnca,33,2,Reward,31,5,3.0,0,183,14,1,1,0,1,3.0,2.0,0.0,Punishment,MostlyReward,MostlyReward
255,101107_fnca,34,2,Reward,32,5,3.0,0,114,14,2,2,0,2,2.0,3.0,1.0,Reward,MostlyReward,MostlyReward
256,101107_fnca,35,2,Reward,32,5,2.0,0,211,14,1,0,1,0,,3.0,,Reward,MostlyReward,MostlyReward
257,101309_fnca,1,1,Reward,2,5,3.0,0,691,27,1,1,0,0,2.0,,1.0,,MostlyReward,MostlyReward
258,101309_fnca,2,1,Reward,3,5,2.0,0,579,14,1,0,1,0,3.0,3.0,1.0,Reward,MostlyReward,MostlyReward
259,101309_fnca,3,1,Punishment,4,5,3.0,0,325,13,1,1,0,0,2.0,2.0,1.0,Reward,MostlyReward,MostlyReward
260,101309_fnca,4,1,Reward,5,5,2.0,0,274,13,1,0,1,0,3.0,3.0,1.0,Punishment,MostlyReward,MostlyReward
261,101309_fnca,5,1,Reward,6,5,3.0,0,397,13,1,1,0,0,3.0,2.0,0.0,Reward,MostlyReward,MostlyReward
262,101309_fnca,6,1,Reward,7,5,3.0,0,414,13,2,2,0,0,2.0,3.0,1.0,Reward,MostlyReward,MostlyReward
263,101309_fnca,7,1,Neutral,8,5,2.0,0,500,13,1,0,1,0,3.0,3.0,1.0,Reward,MostlyReward,MostlyReward
264,101309_fnca,8,1,Reward,9,5,3.0,0,422,13,1,1,0,0,,2.0,,Neutral,MostlyReward,MostlyReward
265,101309_fnca,10,1,Reward,10,5,3.0,0,659,14,2,2,0,0,2.0,,1.0,,MostlyPunishment,MostlyPunishment
266,101309_fnca,11,1,Punishment,11,5,2.0,0,232,13,1,0,1,0,2.0,3.0,0.0,Reward,MostlyPunishment,MostlyPunishment
267,101309_fnca,12,1,Punishment,12,5,2.0,0,229,13,2,0,2,0,2.0,2.0,0.0,Punishment,MostlyPunishment,MostlyPunishment
268,101309_fnca,13,1,Punishment,13,5,2.0,0,291,13,3,0,3,0,2.0,2.0,0.0,Punishment,MostlyPunishment,MostlyPunishment
269,101309_fnca,14,1,Neutral,14,5,2.0,0,209,13,4,0,4,0,2.0,2.0,0.0,Punishment,MostlyPunishment,MostlyPunishment
270,101309_fnca,15,1,Punishment,15,5,2.0,0,218,13,5,0,5,0,2.0,2.0,0.0,Neutral,MostlyPunishment,MostlyPunishment
271,101309_fnca,16,1,Punishment,16,5,2.0,0,218,13,6,0,6,0,2.0,2.0,0.0,Punishment,MostlyPunishment,MostlyPunishment
272,101309_fnca,17,1,Punishment,17,5,2.0,0,227,13,7,0,7,0,,2.0,,Punishment,MostlyPunishment,MostlyPunishment
273,101309_fnca,19,1,Punishment,18,5,3.0,0,611,13,1,1,0,0,3.0,,0.0,,MostlyPunishment,MostlyPunishment
274,101309_fnca,20,1,Punishment,19,5,3.0,0,318,13,2,2,0,0,3.0,3.0,0.0,Punishment,MostlyPunishment,MostlyPunishment
275,101309_fnca,21,1,Punishment,20,5,3.0,0,267,13,3,3,0,0,3.0,3.0,0.0,Punishment,MostlyPunishment,MostlyPunishment
276,101309_fnca,22,1,Neutral,21,5,3.0,0,230,13,4,4,0,0,2.0,3.0,1.0,Punishment,MostlyPunishment,MostlyPunishment
277,101309_fnca,23,1,Punishment,22,5,2.0,0,347,13,1,0,1,0,2.0,3.0,0.0,Neutral,MostlyPunishment,MostlyPunishment
278,101309_fnca,24,1,Neutral,23,5,2.0,0,204,13,2,0,2,0,2.0,2.0,0.0,Punishment,MostlyPunishment,MostlyPunishment
279,101309_fnca,25,1,Punishment,24,5,2.0,0,194,13,3,0,3,1,2.0,2.0,0.0,Neutral,MostlyPunishment,MostlyPunishment
280,101309_fnca,26,1,Punishment,25,5,2.0,0,306,13,4,0,4,0,,2.0,,Punishment,MostlyPunishment,MostlyPunishment
281,101309_fnca,28,1,Reward,26,5,3.0,0,494,13,1,1,0,0,2.0,,1.0,,MostlyReward,MostlyReward
282,101309_fnca,29,1,Reward,27,5,2.0,0,218,13,1,0,1,0,2.0,3.0,0.0,Reward,MostlyReward,MostlyReward
283,101309_fnca,30,1,Punishment,28,5,2.0,0,467,13,2,0,2,0,3.0,2.0,1.0,Reward,MostlyReward,MostlyReward
284,101309_fnca,31,1,Reward,29,5,3.0,0,230,13,1,1,0,0,3.0,2.0,0.0,Punishment,MostlyReward,MostlyReward
285,101309_fnca,32,1,Punishment,30,5,3.0,0,317,13,2,2,0,0,3.0,3.0,0.0,Reward,MostlyReward,MostlyReward
286,101309_fnca,33,1,Reward,31,5,3.0,0,276,14,3,3,0,0,2.0,3.0,1.0,Punishment,MostlyReward,MostlyReward
287,101309_fnca,34,1,Reward,32,5,2.0,0,217,13,1,0,1,0,2.0,3.0,0.0,Reward,MostlyReward,MostlyReward
288,101309_fnca,35,1,Reward,32,5,2.0,0,360,13,2,0,2,0,,2.0,,Reward,MostlyReward,MostlyReward
289,101309_fnca,1,2,Punishment,2,5,3.0,0,300,26,1,1,0,0,2.0,,1.0,,,MostlyPunishment
290,101309_fnca,2,2,Punishment,3,5,2.0,0,214,13,1,0,1,0,3.0,3.0,1.0,Punishment,,MostlyPunishment
291,101309_fnca,3,2,Reward,4,5,3.0,0,197,13,1,1,0,1,3.0,2.0,0.0,Punishment,,MostlyPunishment
292,101309_fnca,4,2,Punishment,5,5,3.0,0,191,13,2,2,0,2,3.0,3.0,0.0,Reward,,MostlyPunishment
293,101309_fnca,5,2,Reward,6,5,3.0,0,326,13,3,3,0,0,2.0,3.0,1.0,Punishment,,MostlyPunishment
294,101309_fnca,6,2,Punishment,7,5,2.0,0,540,13,1,0,1,0,2.0,3.0,0.0,Reward,,MostlyPunishment
295,101309_fnca,7,2,Punishment,8,5,2.0,0,282,13,2,0,2,0,2.0,2.0,0.0,Punishment,,MostlyPunishment
296,101309_fnca,8,2,Punishment,9,5,2.0,0,160,13,3,0,3,1,,2.0,,Punishment,,MostlyPunishment
297,101309_fnca,10,2,Reward,10,5,3.0,0,715,14,1,1,0,0,2.0,,1.0,,,MostlyReward
298,101309_fnca,11,2,Neutral,11,5,2.0,0,138,13,1,0,1,1,3.0,3.0,1.0,Reward,,MostlyReward
299,101309_fnca,12,2,Reward,12,5,3.0,0,236,13,1,1,0,0,2.0,2.0,1.0,Neutral,,MostlyReward
300,101309_fnca,13,2,Reward,13,5,2.0,0,549,13,1,0,1,0,3.0,3.0,1.0,Reward,,MostlyReward
301,101309_fnca,14,2,Reward,14,5,3.0,0,180,14,1,1,0,1,2.0,2.0,1.0,Reward,,MostlyReward
302,101309_fnca,15,2,Reward,15,5,2.0,0,212,13,1,0,1,0,3.0,3.0,1.0,Reward,,MostlyReward
303,101309_fnca,16,2,Neutral,16,5,3.0,0,260,13,1,1,0,0,2.0,2.0,1.0,Reward,,MostlyReward
304,101309_fnca,17,2,Reward,17,5,2.0,0,191,13,1,0,1,1,,3.0,,Neutral,,MostlyReward
305,101309_fnca,19,2,Punishment,18,5,3.0,0,553,13,1,1,0,0,3.0,,0.0,,,MostlyPunishment
306,101309_fnca,20,2,Punishment,19,5,3.0,0,232,13,2,2,0,0,3.0,3.0,0.0,Punishment,,MostlyPunishment
307,101309_fnca,21,2,Reward,20,5,3.0,0,815,14,3,3,0,0,3.0,3.0,0.0,Punishment,,MostlyPunishment
308,101309_fnca,22,2,Punishment,21,5,3.0,0,841,14,4,4,0,0,3.0,3.0,0.0,Reward,,MostlyPunishment
309,101309_fnca,23,2,Reward,22,5,3.0,0,387,14,5,5,0,0,2.0,3.0,1.0,Punishment,,MostlyPunishment
310,101309_fnca,24,2,Punishment,23,5,2.0,0,162,14,1,0,1,1,3.0,3.0,1.0,Reward,,MostlyPunishment
311,101309_fnca,25,2,Punishment,24,5,3.0,0,251,14,1,1,0,0,3.0,2.0,0.0,Punishment,,MostlyPunishment
312,101309_fnca,26,2,Punishment,25,5,3.0,0,269,13,2,2,0,0,,3.0,,Punishment,,MostlyPunishment
313,101309_fnca,28,2,Reward,26,5,3.0,0,927,13,3,3,0,0,3.0,,0.0,,MostlyReward,MostlyReward
314,101309_fnca,29,2,Reward,27,5,3.0,0,228,13,4,4,0,0,2.0,3.0,1.0,Reward,MostlyReward,MostlyReward
315,101309_fnca,30,2,Punishment,28,5,2.0,0,282,14,1,0,1,0,3.0,3.0,1.0,Reward,MostlyReward,MostlyReward
316,101309_fnca,31,2,Reward,29,5,3.0,0,238,14,1,1,0,0,2.0,2.0,1.0,Punishment,MostlyReward,MostlyReward
317,101309_fnca,32,2,Punishment,30,5,2.0,0,223,14,1,0,1,0,2.0,3.0,0.0,Reward,MostlyReward,MostlyReward
318,101309_fnca,33,2,Reward,31,5,2.0,0,231,13,2,0,2,0,3.0,2.0,1.0,Punishment,MostlyReward,MostlyReward
319,101309_fnca,34,2,Reward,32,5,3.0,0,406,13,1,1,0,0,3.0,2.0,0.0,Reward,MostlyReward,MostlyReward
320,101309_fnca,35,2,Reward,32,5,3.0,0,515,13,2,2,0,0,,3.0,,Reward,MostlyReward,MostlyReward
321,101410_fnca,1,1,Reward,2,5,3.0,0,591,27,1,1,0,0,3.0,,0.0,,MostlyReward,MostlyReward
322,101410_fnca,2,1,Reward,3,5,3.0,0,875,13,2,2,0,0,3.0,3.0,0.0,Reward,MostlyReward,MostlyReward
323,101410_fnca,3,1,Punishment,4,5,3.0,0,428,14,3,3,0,0,2.0,3.0,1.0,Reward,MostlyReward,MostlyReward
324,101410_fnca,4,1,Reward,5,5,2.0,0,779,13,1,0,1,0,3.0,3.0,1.0,Punishment,MostlyReward,MostlyReward
325,101410_fnca,5,1,Reward,6,5,3.0,0,514,13,1,1,0,0,3.0,2.0,0.0,Reward,MostlyReward,MostlyReward
326,101410_fnca,6,1,Reward,7,5,3.0,0,588,13,2,2,0,0,2.0,3.0,1.0,Reward,MostlyReward,MostlyReward
327,101410_fnca,7,1,Neutral,8,5,2.0,0,322,13,1,0,1,0,3.0,3.0,1.0,Reward,MostlyReward,MostlyReward
328,101410_fnca,8,1,Reward,9,5,3.0,0,380,13,1,1,0,0,,2.0,,Neutral,MostlyReward,MostlyReward
329,101410_fnca,10,1,Reward,10,5,2.0,0,696,14,1,0,1,0,2.0,,0.0,,MostlyPunishment,MostlyPunishment
330,101410_fnca,11,1,Punishment,11,5,2.0,0,413,14,2,0,2,0,3.0,2.0,1.0,Reward,MostlyPunishment,MostlyPunishment
331,101410_fnca,12,1,Punishment,12,5,3.0,0,465,13,1,1,0,0,2.0,2.0,1.0,Punishment,MostlyPunishment,MostlyPunishment
332,101410_fnca,13,1,Punishment,13,5,2.0,0,464,14,1,0,1,0,2.0,3.0,0.0,Punishment,MostlyPunishment,MostlyPunishment
333,101410_fnca,14,1,Neutral,14,5,2.0,0,449,14,2,0,2,0,2.0,2.0,0.0,Punishment,MostlyPunishment,MostlyPunishment
334,101410_fnca,15,1,Punishment,15,5,2.0,0,666,13,3,0,3,0,3.0,2.0,1.0,Neutral,MostlyPunishment,MostlyPunishment
335,101410_fnca,16,1,Punishment,16,5,3.0,0,331,13,1,1,0,0,3.0,2.0,0.0,Punishment,MostlyPunishment,MostlyPunishment
336,101410_fnca,17,1,Punishment,17,5,3.0,0,355,13,2,2,0,0,,3.0,,Punishment,MostlyPunishment,MostlyPunishment
337,101410_fnca,19,1,Punishment,18,5,2.0,0,618,13,1,0,1,0,3.0,,1.0,,MostlyPunishment,MostlyPunishment
338,101410_fnca,20,1,Punishment,19,5,3.0,0,445,13,1,1,0,0,3.0,2.0,0.0,Punishment,MostlyPunishment,MostlyPunishment
339,101410_fnca,21,1,Punishment,20,5,3.0,0,732,13,2,2,0,0,3.0,3.0,0.0,Punishment,MostlyPunishment,MostlyPunishment
340,101410_fnca,22,1,Neutral,21,5,3.0,0,550,14,3,3,0,0,3.0,3.0,0.0,Punishment,MostlyPunishment,MostlyPunishment
341,101410_fnca,23,1,Punishment,22,5,3.0,0,536,14,4,4,0,0,3.0,3.0,0.0,Neutral,MostlyPunishment,MostlyPunishment
342,101410_fnca,24,1,Neutral,23,5,3.0,0,488,14,5,5,0,0,2.0,3.0,1.0,Punishment,MostlyPunishment,MostlyPunishment
343,101410_fnca,25,1,Punishment,24,5,2.0,0,280,14,1,0,1,0,2.0,3.0,0.0,Neutral,MostlyPunishment,MostlyPunishment
344,101410_fnca,26,1,Punishment,25,5,2.0,0,515,13,2,0,2,0,,2.0,,Punishment,MostlyPunishment,MostlyPunishment
345,101410_fnca,28,1,Reward,26,5,3.0,0,799,14,1,1,0,0,3.0,,0.0,,MostlyReward,MostlyReward
346,101410_fnca,29,1,Reward,27,5,3.0,0,466,13,2,2,0,0,3.0,3.0,0.0,Reward,MostlyReward,MostlyReward
347,101410_fnca,30,1,Punishment,28,5,3.0,0,507,13,3,3,0,0,3.0,3.0,0.0,Reward,MostlyReward,MostlyReward
348,101410_fnca,31,1,Reward,29,5,3.0,0,438,14,4,4,0,0,2.0,3.0,1.0,Punishment,MostlyReward,MostlyReward
349,101410_fnca,32,1,Punishment,30,5,2.0,0,217,14,1,0,1,0,2.0,3.0,0.0,Reward,MostlyReward,MostlyReward
350,101410_fnca,33,1,Reward,31,5,2.0,0,366,14,2,0,2,0,3.0,2.0,1.0,Punishment,MostlyReward,MostlyReward
351,101410_fnca,34,1,Reward,32,5,3.0,0,228,13,1,1,0,0,3.0,2.0,0.0,Reward,MostlyReward,MostlyReward
352,101410_fnca,35,1,Reward,32,5,3.0,0,352,13,2,2,0,0,,3.0,,Reward,MostlyReward,MostlyReward
353,101410_fnca,1,2,Punishment,2,5,2.0,0,530,27,1,0,1,0,3.0,,1.0,,,MostlyPunishment
354,101410_fnca,2,2,Punishment,3,5,3.0,0,375,13,1,1,0,0,2.0,2.0,1.0,Punishment,,MostlyPunishment
355,101410_fnca,3,2,Reward,4,5,2.0,0,381,14,1,0,1,0,2.0,3.0,0.0,Punishment,,MostlyPunishment
356,101410_fnca,4,2,Punishment,5,5,2.0,0,515,14,2,0,2,0,3.0,2.0,1.0,Reward,,MostlyPunishment
357,101410_fnca,5,2,Reward,6,5,3.0,0,307,13,1,1,0,0,3.0,2.0,0.0,Punishment,,MostlyPunishment
358,101410_fnca,6,2,Punishment,7,5,3.0,0,249,13,2,2,0,0,2.0,3.0,1.0,Reward,,MostlyPunishment
359,101410_fnca,7,2,Punishment,8,5,2.0,0,274,13,1,0,1,0,2.0,3.0,0.0,Punishment,,MostlyPunishment
360,101410_fnca,8,2,Punishment,9,5,2.0,0,416,13,2,0,2,0,,2.0,,Punishment,,MostlyPunishment
361,101410_fnca,10,2,Reward,10,5,3.0,0,566,14,1,1,0,0,3.0,,0.0,,,MostlyReward
362,101410_fnca,11,2,Neutral,11,5,3.0,0,359,13,2,2,0,0,3.0,3.0,0.0,Reward,,MostlyReward
363,101410_fnca,12,2,Reward,12,5,3.0,0,262,14,3,3,0,0,2.0,3.0,1.0,Neutral,,MostlyReward
364,101410_fnca,13,2,Reward,13,5,2.0,0,383,13,1,0,1,0,3.0,3.0,1.0,Reward,,MostlyReward
365,101410_fnca,14,2,Reward,14,5,3.0,0,422,13,1,1,0,0,3.0,2.0,0.0,Reward,,MostlyReward
366,101410_fnca,15,2,Reward,15,5,3.0,0,449,14,2,2,0,0,2.0,3.0,1.0,Reward,,MostlyReward
367,101410_fnca,16,2,Neutral,16,5,2.0,0,285,14,1,0,1,0,2.0,3.0,0.0,Reward,,MostlyReward
368,101410_fnca,17,2,Reward,17,5,2.0,0,284,13,2,0,2,0,,2.0,,Neutral,,MostlyReward
369,101410_fnca,19,2,Punishment,18,5,2.0,0,640,14,3,0,3,0,2.0,,0.0,,,MostlyPunishment
370,101410_fnca,20,2,Punishment,19,5,2.0,0,290,13,4,0,4,0,3.0,2.0,1.0,Punishment,,MostlyPunishment
371,101410_fnca,21,2,Reward,20,5,3.0,0,256,13,1,1,0,0,3.0,2.0,0.0,Punishment,,MostlyPunishment
372,101410_fnca,22,2,Punishment,21,5,3.0,0,409,13,2,2,0,0,2.0,3.0,1.0,Reward,,MostlyPunishment
373,101410_fnca,23,2,Reward,22,5,2.0,0,230,13,1,0,1,0,3.0,3.0,1.0,Punishment,,MostlyPunishment
374,101410_fnca,24,2,Punishment,23,5,3.0,0,368,14,1,1,0,0,2.0,2.0,1.0,Reward,,MostlyPunishment
375,101410_fnca,25,2,Punishment,24,5,2.0,0,251,13,1,0,1,0,2.0,3.0,0.0,Punishment,,MostlyPunishment
376,101410_fnca,26,2,Punishment,25,5,2.0,0,288,13,2,0,2,0,,2.0,,Punishment,,MostlyPunishment
377,101410_fnca,28,2,Reward,26,5,2.0,0,533,14,3,0,3,0,2.0,,0.0,,MostlyReward,MostlyReward
378,101410_fnca,29,2,Reward,27,5,2.0,0,120,13,4,0,4,1,3.0,2.0,1.0,Reward,MostlyReward,MostlyReward
379,101410_fnca,30,2,Punishment,28,5,3.0,0,366,13,1,1,0,0,3.0,2.0,0.0,Reward,MostlyReward,MostlyReward
380,101410_fnca,31,2,Reward,29,5,3.0,0,233,13,2,2,0,0,3.0,3.0,0.0,Punishment,MostlyReward,MostlyReward
381,101410_fnca,32,2,Punishment,30,5,3.0,0,287,13,3,3,0,0,2.0,3.0,1.0,Reward,MostlyReward,MostlyReward
382,101410_fnca,33,2,Reward,31,5,2.0,0,241,13,1,0,1,0,2.0,3.0,0.0,Punishment,MostlyReward,MostlyReward
383,101410_fnca,34,2,Reward,32,5,2.0,0,223,13,2,0,2,0,3.0,2.0,1.0,Reward,MostlyReward,MostlyReward
384,101410_fnca,35,2,Reward,32,5,3.0,0,258,14,1,1,0,0,,2.0,,Reward,MostlyReward,MostlyReward
385,101915_fnca,1,1,Reward,2,5,2.0,0,578,54,1,0,1,0,2.0,,0.0,,MostlyReward,MostlyReward
386,101915_fnca,2,1,Reward,3,5,2.0,0,505,14,2,0,2,0,3.0,2.0,1.0,Reward,MostlyReward,MostlyReward
387,101915_fnca,3,1,Punishment,4,5,3.0,0,449,13,1,1,0,0,3.0,2.0,0.0,Reward,MostlyReward,MostlyReward
388,101915_fnca,4,1,Reward,5,5,3.0,0,419,13,2,2,0,0,2.0,3.0,1.0,Punishment,MostlyReward,MostlyReward
389,101915_fnca,5,1,Reward,6,5,2.0,0,353,13,1,0,1,0,2.0,3.0,0.0,Reward,MostlyReward,MostlyReward
390,101915_fnca,6,1,Reward,7,5,2.0,0,512,13,2,0,2,0,2.0,2.0,0.0,Reward,MostlyReward,MostlyReward
391,101915_fnca,7,1,Neutral,8,5,2.0,0,391,13,3,0,3,0,3.0,2.0,1.0,Reward,MostlyReward,MostlyReward
392,101915_fnca,8,1,Reward,9,5,3.0,0,344,14,1,1,0,0,,2.0,,Neutral,MostlyReward,MostlyReward
393,101915_fnca,10,1,Reward,10,5,3.0,0,1165,14,2,2,0,0,3.0,,0.0,,MostlyPunishment,MostlyPunishment
394,101915_fnca,11,1,Punishment,11,5,3.0,0,529,14,3,3,0,0,3.0,3.0,0.0,Reward,MostlyPunishment,MostlyPunishment
395,101915_fnca,12,1,Punishment,12,5,3.0,0,623,13,4,4,0,0,2.0,3.0,1.0,Punishment,MostlyPunishment,MostlyPunishment
396,101915_fnca,13,1,Punishment,13,5,2.0,0,634,13,1,0,1,0,2.0,3.0,0.0,Punishment,MostlyPunishment,MostlyPunishment
397,101915_fnca,14,1,Neutral,14,5,2.0,0,376,14,2,0,2,0,2.0,2.0,0.0,Punishment,MostlyPunishment,MostlyPunishment
398,101915_fnca,15,1,Punishment,15,5,2.0,0,437,13,3,0,3,0,3.0,2.0,1.0,Neutral,MostlyPunishment,MostlyPunishment
399,101915_fnca,16,1,Punishment,16,5,3.0,0,467,14,1,1,0,0,3.0,2.0,0.0,Punishment,MostlyPunishment,MostlyPunishment
400,101915_fnca,17,1,Punishment,17,5,3.0,0,469,14,2,2,0,0,,3.0,,Punishment,MostlyPunishment,MostlyPunishment
401,101915_fnca,19,1,Punishment,18,5,3.0,0,865,13,3,3,0,0,3.0,,0.0,,MostlyPunishment,MostlyPunishment
402,101915_fnca,20,1,Punishment,19,5,3.0,0,682,13,4,4,0,0,2.0,3.0,1.0,Punishment,MostlyPunishment,MostlyPunishment
403,101915_fnca,21,1,Punishment,20,5,2.0,0,538,13,1,0,1,0,2.0,3.0,0.0,Punishment,MostlyPunishment,MostlyPunishment
404,101915_fnca,22,1,Neutral,21,5,2.0,0,498,13,2,0,2,0,2.0,2.0,0.0,Punishment,MostlyPunishment,MostlyPunishment
405,101915_fnca,23,1,Punishment,22,5,2.0,0,567,13,3,0,3,0,2.0,2.0,0.0,Neutral,MostlyPunishment,MostlyPunishment
406,101915_fnca,24,1,Neutral,23,5,2.0,0,421,13,4,0,4,0,2.0,2.0,0.0,Punishment,MostlyPunishment,MostlyPunishment
407,101915_fnca,25,1,Punishment,24,5,2.0,0,481,13,5,0,5,0,3.0,2.0,1.0,Neutral,MostlyPunishment,MostlyPunishment
408,101915_fnca,26,1,Punishment,25,5,3.0,0,463,14,1,1,0,0,,2.0,,Punishment,MostlyPunishment,MostlyPunishment
409,101915_fnca,28,1,Reward,26,5,3.0,0,527,13,2,2,0,0,3.0,,0.0,,MostlyReward,MostlyReward
410,101915_fnca,29,1,Reward,27,5,3.0,0,425,14,3,3,0,0,3.0,3.0,0.0,Reward,MostlyReward,MostlyReward
411,101915_fnca,30,1,Punishment,28,5,3.0,0,529,13,4,4,0,0,2.0,3.0,1.0,Reward,MostlyReward,MostlyReward
412,101915_fnca,31,1,Reward,29,5,2.0,0,394,13,1,0,1,0,2.0,3.0,0.0,Punishment,MostlyReward,MostlyReward
413,101915_fnca,32,1,Punishment,30,5,2.0,0,632,13,2,0,2,0,2.0,2.0,0.0,Reward,MostlyReward,MostlyReward
414,101915_fnca,33,1,Reward,31,5,2.0,0,672,13,3,0,3,0,3.0,2.0,1.0,Punishment,MostlyReward,MostlyReward
415,101915_fnca,34,1,Reward,32,5,3.0,0,327,14,1,1,0,0,3.0,2.0,0.0,Reward,MostlyReward,MostlyReward
416,101915_fnca,35,1,Reward,32,5,3.0,0,472,14,2,2,0,0,,3.0,,Reward,MostlyReward,MostlyReward
417,101915_fnca,1,2,Punishment,2,5,2.0,0,563,26,1,0,1,0,2.0,,0.0,,,MostlyPunishment
418,101915_fnca,2,2,Punishment,3,5,2.0,0,546,13,2,0,2,0,2.0,2.0,0.0,Punishment,,MostlyPunishment
419,101915_fnca,3,2,Reward,4,5,2.0,0,459,13,3,0,3,0,3.0,2.0,1.0,Punishment,,MostlyPunishment
420,101915_fnca,4,2,Punishment,5,5,3.0,0,407,13,1,1,0,0,2.0,2.0,1.0,Reward,,MostlyPunishment
421,101915_fnca,5,2,Reward,6,5,2.0,0,435,13,1,0,1,0,2.0,3.0,0.0,Punishment,,MostlyPunishment
422,101915_fnca,6,2,Punishment,7,5,2.0,0,544,14,2,0,2,0,2.0,2.0,0.0,Reward,,MostlyPunishment
423,101915_fnca,7,2,Punishment,8,5,2.0,0,523,14,3,0,3,0,2.0,2.0,0.0,Punishment,,MostlyPunishment
424,101915_fnca,8,2,Punishment,9,5,2.0,0,411,14,4,0,4,0,,2.0,,Punishment,,MostlyPunishment
425,101915_fnca,10,2,Reward,10,5,3.0,0,600,13,1,1,0,0,2.0,,1.0,,,MostlyReward
426,101915_fnca,11,2,Neutral,11,5,2.0,0,707,14,1,0,1,0,2.0,3.0,0.0,Reward,,MostlyReward
427,101915_fnca,12,2,Reward,12,5,2.0,0,466,14,2,0,2,0,2.0,2.0,0.0,Neutral,,MostlyReward
428,101915_fnca,13,2,Reward,13,5,2.0,0,456,14,3,0,3,0,2.0,2.0,0.0,Reward,,MostlyReward
429,101915_fnca,14,2,Reward,14,5,2.0,0,530,13,4,0,4,0,3.0,2.0,1.0,Reward,,MostlyReward
430,101915_fnca,15,2,Reward,15,5,3.0,0,465,13,1,1,0,0,2.0,2.0,1.0,Reward,,MostlyReward
431,101915_fnca,16,2,Neutral,16,5,2.0,0,478,13,1,0,1,0,2.0,3.0,0.0,Reward,,MostlyReward
432,101915_fnca,17,2,Reward,17,5,2.0,0,445,14,2,0,2,0,,2.0,,Neutral,,MostlyReward
433,101915_fnca,19,2,Punishment,18,5,2.0,0,459,13,3,0,3,0,2.0,,0.0,,,MostlyPunishment
434,101915_fnca,20,2,Punishment,19,5,2.0,0,543,13,4,0,4,0,3.0,2.0,1.0,Punishment,,MostlyPunishment
435,101915_fnca,21,2,Reward,20,5,3.0,0,461,13,1,1,0,0,2.0,2.0,1.0,Punishment,,MostlyPunishment
436,101915_fnca,22,2,Punishment,21,5,2.0,0,497,14,1,0,1,0,2.0,3.0,0.0,Reward,,MostlyPunishment
437,101915_fnca,23,2,Reward,22,5,2.0,0,446,14,2,0,2,0,2.0,2.0,0.0,Punishment,,MostlyPunishment
438,101915_fnca,24,2,Punishment,23,5,2.0,0,663,13,3,0,3,0,2.0,2.0,0.0,Reward,,MostlyPunishment
439,101915_fnca,25,2,Punishment,24,5,2.0,0,630,13,4,0,4,0,3.0,2.0,1.0,Punishment,,MostlyPunishment
440,101915_fnca,26,2,Punishment,25,5,3.0,0,393,13,1,1,0,0,,2.0,,Punishment,,MostlyPunishment
441,101915_fnca,28,2,Reward,26,5,2.0,0,909,13,1,0,1,0,3.0,,1.0,,MostlyReward,MostlyReward
442,101915_fnca,29,2,Reward,27,5,3.0,0,503,13,1,1,0,0,3.0,2.0,0.0,Reward,MostlyReward,MostlyReward
443,101915_fnca,30,2,Punishment,28,5,3.0,0,388,13,2,2,0,0,2.0,3.0,1.0,Reward,MostlyReward,MostlyReward
444,101915_fnca,31,2,Reward,29,5,2.0,0,474,13,1,0,1,0,2.0,3.0,0.0,Punishment,MostlyReward,MostlyReward
445,101915_fnca,32,2,Punishment,30,5,2.0,0,462,14,2,0,2,0,2.0,2.0,0.0,Reward,MostlyReward,MostlyReward
446,101915_fnca,33,2,Reward,31,5,2.0,0,506,14,3,0,3,0,3.0,2.0,1.0,Punishment,MostlyReward,MostlyReward
447,101915_fnca,34,2,Reward,32,5,3.0,0,403,13,1,1,0,0,3.0,2.0,0.0,Reward,MostlyReward,MostlyReward
448,101915_fnca,35,2,Reward,32,5,3.0,0,526,13,2,2,0,0,,3.0,,Reward,MostlyReward,MostlyReward
449,102008_fnca,1,1,Reward,2,5,3.0,0,334,26,1,1,0,0,2.0,,1.0,,MostlyReward,MostlyReward
450,102008_fnca,2,1,Reward,3,5,2.0,0,304,13,1,0,1,0,2.0,3.0,0.0,Reward,MostlyReward,MostlyReward
451,102008_fnca,3,1,Punishment,4,5,2.0,0,338,13,2,0,2,0,2.0,2.0,0.0,Reward,MostlyReward,MostlyReward
452,102008_fnca,4,1,Reward,5,5,2.0,0,576,13,3,0,3,0,2.0,2.0,0.0,Punishment,MostlyReward,MostlyReward
453,102008_fnca,5,1,Reward,6,5,2.0,0,418,13,4,0,4,0,3.0,2.0,1.0,Reward,MostlyReward,MostlyReward
454,102008_fnca,6,1,Reward,7,5,3.0,0,323,13,1,1,0,0,2.0,2.0,1.0,Reward,MostlyReward,MostlyReward
455,102008_fnca,7,1,Neutral,8,5,2.0,0,335,13,1,0,1,0,2.0,3.0,0.0,Reward,MostlyReward,MostlyReward
456,102008_fnca,8,1,Reward,9,5,2.0,0,404,13,2,0,2,0,,2.0,,Neutral,MostlyReward,MostlyReward
457,102008_fnca,10,1,Reward,10,5,2.0,0,388,14,3,0,3,0,3.0,,1.0,,MostlyPunishment,MostlyPunishment
458,102008_fnca,11,1,Punishment,11,5,3.0,0,253,14,1,1,0,0,3.0,2.0,0.0,Reward,MostlyPunishment,MostlyPunishment
459,102008_fnca,12,1,Punishment,12,5,3.0,0,323,13,2,2,0,0,3.0,3.0,0.0,Punishment,MostlyPunishment,MostlyPunishment
460,102008_fnca,13,1,Punishment,13,5,3.0,0,433,14,3,3,0,0,2.0,3.0,1.0,Punishment,MostlyPunishment,MostlyPunishment
461,102008_fnca,14,1,Neutral,14,5,2.0,0,526,13,1,0,1,0,2.0,3.0,0.0,Punishment,MostlyPunishment,MostlyPunishment
462,102008_fnca,15,1,Punishment,15,5,2.0,0,308,13,2,0,2,0,3.0,2.0,1.0,Neutral,MostlyPunishment,MostlyPunishment
463,102008_fnca,16,1,Punishment,16,5,3.0,0,274,13,1,1,0,0,3.0,2.0,0.0,Punishment,MostlyPunishment,MostlyPunishment
464,102008_fnca,17,1,Punishment,17,5,3.0,0,394,13,2,2,0,0,,3.0,,Punishment,MostlyPunishment,MostlyPunishment
465,102008_fnca,19,1,Punishment,18,5,2.0,0,781,13,1,0,1,0,3.0,,1.0,,MostlyPunishment,MostlyPunishment
466,102008_fnca,20,1,Punishment,19,5,3.0,0,400,14,1,1,0,0,3.0,2.0,0.0,Punishment,MostlyPunishment,MostlyPunishment
467,102008_fnca,21,1,Punishment,20,5,3.0,0,236,14,2,2,0,0,2.0,3.0,1.0,Punishment,MostlyPunishment,MostlyPunishment
468,102008_fnca,22,1,Neutral,21,5,2.0,0,264,13,1,0,1,0,3.0,3.0,1.0,Punishment,MostlyPunishment,MostlyPunishment
469,102008_fnca,23,1,Punishment,22,5,3.0,0,268,13,1,1,0,0,2.0,2.0,1.0,Neutral,MostlyPunishment,MostlyPunishment
470,102008_fnca,24,1,Neutral,23,5,2.0,0,340,14,1,0,1,0,3.0,3.0,1.0,Punishment,MostlyPunishment,MostlyPunishment
471,102008_fnca,25,1,Punishment,24,5,3.0,0,204,13,1,1,0,0,2.0,2.0,1.0,Neutral,MostlyPunishment,MostlyPunishment
472,102008_fnca,26,1,Punishment,25,5,2.0,0,236,13,1,0,1,0,,3.0,,Punishment,MostlyPunishment,MostlyPunishment
473,102008_fnca,28,1,Reward,26,5,3.0,0,484,13,1,1,0,0,3.0,,0.0,,MostlyReward,MostlyReward
474,102008_fnca,29,1,Reward,27,5,3.0,0,229,13,2,2,0,0,3.0,3.0,0.0,Reward,MostlyReward,MostlyReward
475,102008_fnca,30,1,Punishment,28,5,3.0,0,309,13,3,3,0,0,3.0,3.0,0.0,Reward,MostlyReward,MostlyReward
476,102008_fnca,31,1,Reward,29,5,3.0,0,263,13,4,4,0,0,2.0,3.0,1.0,Punishment,MostlyReward,MostlyReward
477,102008_fnca,32,1,Punishment,30,5,2.0,0,356,13,1,0,1,0,3.0,3.0,1.0,Reward,MostlyReward,MostlyReward
478,102008_fnca,33,1,Reward,31,5,3.0,0,233,14,1,1,0,0,3.0,2.0,0.0,Punishment,MostlyReward,MostlyReward
479,102008_fnca,34,1,Reward,32,5,3.0,0,242,13,2,2,0,0,3.0,3.0,0.0,Reward,MostlyReward,MostlyReward
480,102008_fnca,35,1,Reward,32,5,3.0,0,296,13,3,3,0,0,,3.0,,Reward,MostlyReward,MostlyReward
481,102008_fnca,1,2,Punishment,2,5,3.0,0,303,27,1,1,0,0,2.0,,1.0,,,MostlyPunishment
482,102008_fnca,2,2,Punishment,3,5,2.0,0,269,13,1,0,1,0,2.0,3.0,0.0,Punishment,,MostlyPunishment
483,102008_fnca,3,2,Reward,4,5,2.0,0,306,13,2,0,2,0,2.0,2.0,0.0,Punishment,,MostlyPunishment
484,102008_fnca,4,2,Punishment,5,5,2.0,0,339,14,3,0,3,0,2.0,2.0,0.0,Reward,,MostlyPunishment
485,102008_fnca,5,2,Reward,6,5,2.0,0,536,13,4,0,4,0,3.0,2.0,1.0,Punishment,,MostlyPunishment
486,102008_fnca,6,2,Punishment,7,5,3.0,0,399,14,1,1,0,0,2.0,2.0,1.0,Reward,,MostlyPunishment
487,102008_fnca,7,2,Punishment,8,5,2.0,0,440,13,1,0,1,0,2.0,3.0,0.0,Punishment,,MostlyPunishment
488,102008_fnca,8,2,Punishment,9,5,2.0,0,262,13,2,0,2,0,,2.0,,Punishment,,MostlyPunishment
489,102008_fnca,10,2,Reward,10,5,3.0,0,325,13,1,1,0,0,3.0,,0.0,,,MostlyReward
490,102008_fnca,11,2,Neutral,11,5,3.0,0,265,13,2,2,0,0,2.0,3.0,1.0,Reward,,MostlyReward
491,102008_fnca,12,2,Reward,12,5,2.0,0,234,13,1,0,1,0,2.0,3.0,0.0,Neutral,,MostlyReward
492,102008_fnca,13,2,Reward,13,5,2.0,0,241,14,2,0,2,0,3.0,2.0,1.0,Reward,,MostlyReward
493,102008_fnca,14,2,Reward,14,5,3.0,0,208,14,1,1,0,0,3.0,2.0,0.0,Reward,,MostlyReward
494,102008_fnca,15,2,Reward,15,5,3.0,0,252,13,2,2,0,0,2.0,3.0,1.0,Reward,,MostlyReward
495,102008_fnca,16,2,Neutral,16,5,2.0,0,266,13,1,0,1,0,2.0,3.0,0.0,Reward,,MostlyReward
496,102008_fnca,17,2,Reward,17,5,2.0,0,292,13,2,0,2,0,,2.0,,Neutral,,MostlyReward
497,102008_fnca,19,2,Punishment,18,5,3.0,0,487,14,1,1,0,0,3.0,,0.0,,,MostlyPunishment
498,102008_fnca,20,2,Punishment,19,5,3.0,0,285,13,2,2,0,0,2.0,3.0,1.0,Punishment,,MostlyPunishment
499,102008_fnca,21,2,Reward,20,5,2.0,0,551,13,1,0,1,0,2.0,3.0,0.0,Punishment,,MostlyPunishment
500,102008_fnca,22,2,Punishment,21,5,2.0,0,423,13,2,0,2,0,3.0,2.0,1.0,Reward,,MostlyPunishment
501,102008_fnca,23,2,Reward,22,5,3.0,0,336,13,1,1,0,0,3.0,2.0,0.0,Punishment,,MostlyPunishment
502,102008_fnca,24,2,Punishment,23,5,3.0,0,236,13,2,2,0,0,3.0,3.0,0.0,Reward,,MostlyPunishment
503,102008_fnca,25,2,Punishment,24,5,3.0,0,333,13,3,3,0,0,2.0,3.0,1.0,Punishment,,MostlyPunishment
504,102008_fnca,26,2,Punishment,25,5,2.0,0,272,14,1,0,1,0,,3.0,,Punishment,,MostlyPunishment
505,102008_fnca,28,2,Reward,26,5,2.0,0,268,13,2,0,2,0,3.0,,1.0,,MostlyReward,MostlyReward
506,102008_fnca,29,2,Reward,27,5,3.0,0,222,13,1,1,0,0,2.0,2.0,1.0,Reward,MostlyReward,MostlyReward
507,102008_fnca,30,2,Punishment,28,5,2.0,0,245,13,1,0,1,0,3.0,3.0,1.0,Reward,MostlyReward,MostlyReward
508,102008_fnca,31,2,Reward,29,5,3.0,0,283,13,1,1,0,0,2.0,2.0,1.0,Punishment,MostlyReward,MostlyReward
509,102008_fnca,32,2,Punishment,30,5,2.0,0,250,13,1,0,1,0,3.0,3.0,1.0,Reward,MostlyReward,MostlyReward
510,102008_fnca,33,2,Reward,31,5,3.0,0,524,14,1,1,0,0,3.0,2.0,0.0,Punishment,MostlyReward,MostlyReward
511,102008_fnca,34,2,Reward,32,5,3.0,0,276,14,2,2,0,0,3.0,3.0,0.0,Reward,MostlyReward,MostlyReward
512,102008_fnca,35,2,Reward,32,5,3.0,0,272,13,3,3,0,0,,3.0,,Reward,MostlyReward,MostlyReward
513,102311_fnca,1,1,Reward,2,5,3.0,0,505,27,1,1,0,0,2.0,,1.0,,MostlyReward,MostlyReward
514,102311_fnca,2,1,Reward,3,5,2.0,0,827,13,1,0,1,0,3.0,3.0,1.0,Reward,MostlyReward,MostlyReward
515,102311_fnca,3,1,Punishment,4,5,3.0,0,513,13,1,1,0,0,2.0,2.0,1.0,Reward,MostlyReward,MostlyReward
516,102311_fnca,4,1,Reward,5,5,2.0,0,518,13,1,0,1,0,3.0,3.0,1.0,Punishment,MostlyReward,MostlyReward
517,102311_fnca,5,1,Reward,6,5,3.0,0,633,13,1,1,0,0,2.0,2.0,1.0,Reward,MostlyReward,MostlyReward
518,102311_fnca,6,1,Reward,7,5,2.0,0,559,13,1,0,1,0,3.0,3.0,1.0,Reward,MostlyReward,MostlyReward
519,102311_fnca,7,1,Neutral,8,5,3.0,0,236,14,1,1,0,0,3.0,2.0,0.0,Reward,MostlyReward,MostlyReward
520,102311_fnca,8,1,Reward,9,5,3.0,0,274,14,2,2,0,0,,3.0,,Neutral,MostlyReward,MostlyReward
521,102311_fnca,10,1,Reward,10,5,3.0,0,645,14,3,3,0,0,3.0,,0.0,,MostlyPunishment,MostlyPunishment
522,102311_fnca,11,1,Punishment,11,5,3.0,0,525,14,4,4,0,0,3.0,3.0,0.0,Reward,MostlyPunishment,MostlyPunishment
523,102311_fnca,12,1,Punishment,12,5,3.0,0,235,13,5,5,0,0,3.0,3.0,0.0,Punishment,MostlyPunishment,MostlyPunishment
524,102311_fnca,13,1,Punishment,13,5,3.0,0,485,13,6,6,0,0,3.0,3.0,0.0,Punishment,MostlyPunishment,MostlyPunishment
525,102311_fnca,14,1,Neutral,14,5,3.0,0,252,13,7,7,0,0,3.0,3.0,0.0,Punishment,MostlyPunishment,MostlyPunishment
526,102311_fnca,15,1,Punishment,15,5,3.0,0,317,13,8,8,0,0,3.0,3.0,0.0,Neutral,MostlyPunishment,MostlyPunishment
527,102311_fnca,16,1,Punishment,16,5,3.0,0,412,13,9,9,0,0,3.0,3.0,0.0,Punishment,MostlyPunishment,MostlyPunishment
528,102311_fnca,17,1,Punishment,17,5,3.0,0,512,13,10,10,0,0,,3.0,,Punishment,MostlyPunishment,MostlyPunishment
529,102311_fnca,19,1,Punishment,18,5,2.0,0,588,13,1,0,1,0,3.0,,1.0,,MostlyPunishment,MostlyPunishment
530,102311_fnca,20,1,Punishment,19,5,3.0,0,299,13,1,1,0,0,2.0,2.0,1.0,Punishment,MostlyPunishment,MostlyPunishment
531,102311_fnca,21,1,Punishment,20,5,2.0,0,280,13,1,0,1,0,3.0,3.0,1.0,Punishment,MostlyPunishment,MostlyPunishment
532,102311_fnca,22,1,Neutral,21,5,3.0,0,363,13,1,1,0,0,3.0,2.0,0.0,Punishment,MostlyPunishment,MostlyPunishment
533,102311_fnca,23,1,Punishment,22,5,3.0,0,260,14,2,2,0,0,3.0,3.0,0.0,Neutral,MostlyPunishment,MostlyPunishment
534,102311_fnca,24,1,Neutral,23,5,3.0,0,241,13,3,3,0,0,2.0,3.0,1.0,Punishment,MostlyPunishment,MostlyPunishment
535,102311_fnca,25,1,Punishment,24,5,2.0,0,390,14,1,0,1,0,3.0,3.0,1.0,Neutral,MostlyPunishment,MostlyPunishment
536,102311_fnca,26,1,Punishment,25,5,3.0,0,320,14,1,1,0,0,,2.0,,Punishment,MostlyPunishment,MostlyPunishment
537,102311_fnca,28,1,Reward,26,5,3.0,0,691,13,2,2,0,0,3.0,,0.0,,MostlyReward,MostlyReward
538,102311_fnca,29,1,Reward,27,5,3.0,0,350,13,3,3,0,0,3.0,3.0,0.0,Reward,MostlyReward,MostlyReward
539,102311_fnca,30,1,Punishment,28,5,3.0,0,534,13,4,4,0,0,3.0,3.0,0.0,Reward,MostlyReward,MostlyReward
540,102311_fnca,31,1,Reward,29,5,3.0,0,393,13,5,5,0,0,2.0,3.0,1.0,Punishment,MostlyReward,MostlyReward
541,102311_fnca,32,1,Punishment,30,5,2.0,0,211,14,1,0,1,0,2.0,3.0,0.0,Reward,MostlyReward,MostlyReward
542,102311_fnca,33,1,Reward,31,5,2.0,0,579,13,2,0,2,0,2.0,2.0,0.0,Punishment,MostlyReward,MostlyReward
543,102311_fnca,34,1,Reward,32,5,2.0,0,966,13,3,0,3,0,3.0,2.0,1.0,Reward,MostlyReward,MostlyReward
544,102311_fnca,35,1,Reward,32,5,3.0,0,413,14,1,1,0,0,,2.0,,Reward,MostlyReward,MostlyReward
545,102311_fnca,1,2,Punishment,2,5,2.0,0,561,26,1,0,1,0,2.0,,0.0,,,MostlyPunishment
546,102311_fnca,2,2,Punishment,3,5,2.0,0,225,13,2,0,2,0,3.0,2.0,1.0,Punishment,,MostlyPunishment
547,102311_fnca,3,2,Reward,4,5,3.0,0,404,13,1,1,0,0,2.0,2.0,1.0,Punishment,,MostlyPunishment
548,102311_fnca,4,2,Punishment,5,5,2.0,0,494,13,1,0,1,0,3.0,3.0,1.0,Reward,,MostlyPunishment
549,102311_fnca,5,2,Reward,6,5,3.0,0,315,14,1,1,0,0,3.0,2.0,0.0,Punishment,,MostlyPunishment
550,102311_fnca,6,2,Punishment,7,5,3.0,0,623,13,2,2,0,0,3.0,3.0,0.0,Reward,,MostlyPunishment
551,102311_fnca,7,2,Punishment,8,5,3.0,0,310,13,3,3,0,0,2.0,3.0,1.0,Punishment,,MostlyPunishment
552,102311_fnca,8,2,Punishment,9,5,2.0,0,391,13,1,0,1,0,,3.0,,Punishment,,MostlyPunishment
553,102311_fnca,10,2,Reward,10,5,2.0,0,582,13,2,0,2,0,2.0,,0.0,,,MostlyReward
554,102311_fnca,11,2,Neutral,11,5,2.0,0,333,14,3,0,3,0,2.0,2.0,0.0,Reward,,MostlyReward
555,102311_fnca,12,2,Reward,12,5,2.0,0,364,14,4,0,4,0,3.0,2.0,1.0,Neutral,,MostlyReward
556,102311_fnca,13,2,Reward,13,5,3.0,0,657,13,1,1,0,0,2.0,2.0,1.0,Reward,,MostlyReward
557,102311_fnca,14,2,Reward,14,5,2.0,0,258,13,1,0,1,0,2.0,3.0,0.0,Reward,,MostlyReward
558,102311_fnca,15,2,Reward,15,5,2.0,0,345,13,2,0,2,0,3.0,2.0,1.0,Reward,,MostlyReward
559,102311_fnca,16,2,Neutral,16,5,3.0,0,306,14,1,1,0,0,2.0,2.0,1.0,Reward,,MostlyReward
560,102311_fnca,17,2,Reward,17,5,2.0,0,304,14,1,0,1,0,,3.0,,Neutral,,MostlyReward
561,102311_fnca,19,2,Punishment,18,5,2.0,0,767,13,2,0,2,0,3.0,,1.0,,,MostlyPunishment
562,102311_fnca,20,2,Punishment,19,5,3.0,0,251,13,1,1,0,0,3.0,2.0,0.0,Punishment,,MostlyPunishment
563,102311_fnca,21,2,Reward,20,5,3.0,0,255,14,2,2,0,0,2.0,3.0,1.0,Punishment,,MostlyPunishment
564,102311_fnca,22,2,Punishment,21,5,2.0,0,163,14,1,0,1,1,2.0,3.0,0.0,Reward,,MostlyPunishment
565,102311_fnca,23,2,Reward,22,5,2.0,0,417,14,2,0,2,0,3.0,2.0,1.0,Punishment,,MostlyPunishment
566,102311_fnca,24,2,Punishment,23,5,3.0,0,272,13,1,1,0,0,3.0,2.0,0.0,Reward,,MostlyPunishment
567,102311_fnca,25,2,Punishment,24,5,3.0,0,299,13,2,2,0,0,3.0,3.0,0.0,Punishment,,MostlyPunishment
568,102311_fnca,26,2,Punishment,25,5,3.0,0,490,14,3,3,0,0,,3.0,,Punishment,,MostlyPunishment
569,102311_fnca,28,2,Reward,26,5,2.0,0,419,13,1,0,1,0,2.0,,0.0,,MostlyReward,MostlyReward
570,102311_fnca,29,2,Reward,27,5,2.0,0,306,14,2,0,2,0,3.0,2.0,1.0,Reward,MostlyReward,MostlyReward
571,102311_fnca,30,2,Punishment,28,5,3.0,0,370,13,1,1,0,0,3.0,2.0,0.0,Reward,MostlyReward,MostlyReward
572,102311_fnca,31,2,Reward,29,5,3.0,0,408,13,2,2,0,0,3.0,3.0,0.0,Punishment,MostlyReward,MostlyReward
573,102311_fnca,32,2,Punishment,30,5,3.0,0,587,13,3,3,0,0,2.0,3.0,1.0,Reward,MostlyReward,MostlyReward
574,102311_fnca,33,2,Reward,31,5,2.0,0,266,13,1,0,1,0,2.0,3.0,0.0,Punishment,MostlyReward,MostlyReward
575,102311_fnca,34,2,Reward,32,5,2.0,0,410,13,2,0,2,0,2.0,2.0,0.0,Reward,MostlyReward,MostlyReward
576,102311_fnca,35,2,Reward,32,5,2.0,0,462,14,3,0,3,0,,2.0,,Reward,MostlyReward,MostlyReward
577,102816_fnca,1,1,Reward,2,5,2.0,0,665,27,1,0,1,0,3.0,,1.0,,MostlyReward,MostlyReward
578,102816_fnca,2,1,Reward,3,5,3.0,0,571,14,1,1,0,0,2.0,2.0,1.0,Reward,MostlyReward,MostlyReward
579,102816_fnca,3,1,Punishment,4,5,2.0,0,623,14,1,0,1,0,3.0,3.0,1.0,Reward,MostlyReward,MostlyReward
580,102816_fnca,4,1,Reward,5,5,3.0,0,705,14,1,1,0,0,3.0,2.0,0.0,Punishment,MostlyReward,MostlyReward
581,102816_fnca,5,1,Reward,6,5,3.0,0,351,13,2,2,0,0,2.0,3.0,1.0,Reward,MostlyReward,MostlyReward
582,102816_fnca,6,1,Reward,7,5,2.0,0,432,13,1,0,1,0,2.0,3.0,0.0,Reward,MostlyReward,MostlyReward
583,102816_fnca,7,1,Neutral,8,5,2.0,0,704,13,2,0,2,0,3.0,2.0,1.0,Reward,MostlyReward,MostlyReward
584,102816_fnca,8,1,Reward,9,5,3.0,0,512,14,1,1,0,0,,2.0,,Neutral,MostlyReward,MostlyReward
585,102816_fnca,10,1,Reward,10,5,3.0,0,950,13,2,2,0,0,3.0,,0.0,,MostlyPunishment,MostlyPunishment
586,102816_fnca,11,1,Punishment,11,5,3.0,0,809,13,3,3,0,0,3.0,3.0,0.0,Reward,MostlyPunishment,MostlyPunishment
587,102816_fnca,12,1,Punishment,12,5,3.0,0,374,13,4,4,0,0,3.0,3.0,0.0,Punishment,MostlyPunishment,MostlyPunishment
588,102816_fnca,13,1,Punishment,13,5,3.0,0,295,13,5,5,0,0,3.0,3.0,0.0,Punishment,MostlyPunishment,MostlyPunishment
589,102816_fnca,14,1,Neutral,14,5,3.0,0,288,13,6,6,0,0,2.0,3.0,1.0,Punishment,MostlyPunishment,MostlyPunishment
590,102816_fnca,15,1,Punishment,15,5,2.0,0,394,14,1,0,1,0,2.0,3.0,0.0,Neutral,MostlyPunishment,MostlyPunishment
591,102816_fnca,16,1,Punishment,16,5,2.0,0,666,13,2,0,2,0,3.0,2.0,1.0,Punishment,MostlyPunishment,MostlyPunishment
592,102816_fnca,17,1,Punishment,17,5,3.0,0,391,13,1,1,0,0,,2.0,,Punishment,MostlyPunishment,MostlyPunishment
593,102816_fnca,19,1,Punishment,18,5,2.0,0,746,14,1,0,1,0,2.0,,0.0,,MostlyPunishment,MostlyPunishment
594,102816_fnca,20,1,Punishment,19,5,2.0,0,524,14,2,0,2,0,3.0,2.0,1.0,Punishment,MostlyPunishment,MostlyPunishment
595,102816_fnca,21,1,Punishment,20,5,3.0,0,421,13,1,1,0,0,,2.0,,Punishment,MostlyPunishment,MostlyPunishment
596,102816_fnca,22,1,Neutral,21,5,,1,0,13,1,1,0,0,2.0,3.0,,Punishment,MostlyPunishment,MostlyPunishment
597,102816_fnca,23,1,Punishment,22,5,2.0,0,241,13,1,0,1,0,3.0,,1.0,Neutral,MostlyPunishment,MostlyPunishment
598,102816_fnca,24,1,Neutral,23,5,3.0,0,319,13,1,1,0,0,2.0,2.0,1.0,Punishment,MostlyPunishment,MostlyPunishment
599,102816_fnca,25,1,Punishment,24,5,2.0,0,681,13,1,0,1,0,3.0,3.0,1.0,Neutral,MostlyPunishment,MostlyPunishment
600,102816_fnca,26,1,Punishment,25,5,3.0,0,583,14,1,1,0,0,,2.0,,Punishment,MostlyPunishment,MostlyPunishment
601,102816_fnca,28,1,Reward,26,5,3.0,0,623,14,2,2,0,0,3.0,,0.0,,MostlyReward,MostlyReward
602,102816_fnca,29,1,Reward,27,5,3.0,0,465,13,3,3,0,0,2.0,3.0,1.0,Reward,MostlyReward,MostlyReward
603,102816_fnca,30,1,Punishment,28,5,2.0,0,440,13,1,0,1,0,2.0,3.0,0.0,Reward,MostlyReward,MostlyReward
604,102816_fnca,31,1,Reward,29,5,2.0,0,537,13,2,0,2,0,3.0,2.0,1.0,Punishment,MostlyReward,MostlyReward
605,102816_fnca,32,1,Punishment,30,5,3.0,0,562,13,1,1,0,0,3.0,2.0,0.0,Reward,MostlyReward,MostlyReward
606,102816_fnca,33,1,Reward,31,5,3.0,0,393,13,2,2,0,0,2.0,3.0,1.0,Punishment,MostlyReward,MostlyReward
607,102816_fnca,34,1,Reward,32,5,2.0,0,473,14,1,0,1,0,3.0,3.0,1.0,Reward,MostlyReward,MostlyReward
608,102816_fnca,35,1,Reward,32,5,3.0,0,662,13,1,1,0,0,,2.0,,Reward,MostlyReward,MostlyReward
609,102816_fnca,1,2,Punishment,2,5,3.0,0,893,27,1,1,0,0,2.0,,1.0,,,MostlyPunishment
610,102816_fnca,2,2,Punishment,3,5,2.0,0,617,13,1,0,1,0,2.0,3.0,0.0,Punishment,,MostlyPunishment
611,102816_fnca,3,2,Reward,4,5,2.0,0,592,13,2,0,2,0,3.0,2.0,1.0,Punishment,,MostlyPunishment
612,102816_fnca,4,2,Punishment,5,5,3.0,0,519,13,1,1,0,0,3.0,2.0,0.0,Reward,,MostlyPunishment
613,102816_fnca,5,2,Reward,6,5,3.0,0,343,13,2,2,0,0,3.0,3.0,0.0,Punishment,,MostlyPunishment
614,102816_fnca,6,2,Punishment,7,5,3.0,0,424,14,3,3,0,0,2.0,3.0,1.0,Reward,,MostlyPunishment
615,102816_fnca,7,2,Punishment,8,5,2.0,0,441,13,1,0,1,0,3.0,3.0,1.0,Punishment,,MostlyPunishment
616,102816_fnca,8,2,Punishment,9,5,3.0,0,365,13,1,1,0,0,,2.0,,Punishment,,MostlyPunishment
617,102816_fnca,10,2,Reward,10,5,2.0,0,740,13,1,0,1,0,2.0,,0.0,,,MostlyReward
618,102816_fnca,11,2,Neutral,11,5,2.0,0,425,14,2,0,2,0,3.0,2.0,1.0,Reward,,MostlyReward
619,102816_fnca,12,2,Reward,12,5,3.0,0,531,13,1,1,0,0,3.0,2.0,0.0,Neutral,,MostlyReward
620,102816_fnca,13,2,Reward,13,5,3.0,0,402,13,2,2,0,0,2.0,3.0,1.0,Reward,,MostlyReward
621,102816_fnca,14,2,Reward,14,5,2.0,0,576,13,1,0,1,0,2.0,3.0,0.0,Reward,,MostlyReward
622,102816_fnca,15,2,Reward,15,5,2.0,0,429,13,2,0,2,0,3.0,2.0,1.0,Reward,,MostlyReward
623,102816_fnca,16,2,Neutral,16,5,3.0,0,589,13,1,1,0,0,2.0,2.0,1.0,Reward,,MostlyReward
624,102816_fnca,17,2,Reward,17,5,2.0,0,737,14,1,0,1,0,,3.0,,Neutral,,MostlyReward
625,102816_fnca,19,2,Punishment,18,5,3.0,0,512,14,1,1,0,0,2.0,,1.0,,,MostlyPunishment
626,102816_fnca,20,2,Punishment,19,5,2.0,0,424,13,1,0,1,0,3.0,3.0,1.0,Punishment,,MostlyPunishment
627,102816_fnca,21,2,Reward,20,5,3.0,0,535,13,1,1,0,0,3.0,2.0,0.0,Punishment,,MostlyPunishment
628,102816_fnca,22,2,Punishment,21,5,3.0,0,462,13,2,2,0,0,3.0,3.0,0.0,Reward,,MostlyPunishment
629,102816_fnca,23,2,Reward,22,5,3.0,0,405,14,3,3,0,0,2.0,3.0,1.0,Punishment,,MostlyPunishment
630,102816_fnca,24,2,Punishment,23,5,2.0,0,603,13,1,0,1,0,3.0,3.0,1.0,Reward,,MostlyPunishment
631,102816_fnca,25,2,Punishment,24,5,3.0,0,361,14,1,1,0,0,3.0,2.0,0.0,Punishment,,MostlyPunishment
632,102816_fnca,26,2,Punishment,25,5,3.0,0,337,14,2,2,0,0,,3.0,,Punishment,,MostlyPunishment
633,102816_fnca,28,2,Reward,26,5,2.0,0,510,13,1,0,1,0,2.0,,0.0,,MostlyReward,MostlyReward
634,102816_fnca,29,2,Reward,27,5,2.0,0,347,14,2,0,2,0,3.0,2.0,1.0,Reward,MostlyReward,MostlyReward
635,102816_fnca,30,2,Punishment,28,5,3.0,0,432,14,1,1,0,0,3.0,2.0,0.0,Reward,MostlyReward,MostlyReward
636,102816_fnca,31,2,Reward,29,5,3.0,0,314,14,2,2,0,0,2.0,3.0,1.0,Punishment,MostlyReward,MostlyReward
637,102816_fnca,32,2,Punishment,30,5,2.0,0,434,13,1,0,1,0,3.0,3.0,1.0,Reward,MostlyReward,MostlyReward
638,102816_fnca,33,2,Reward,31,5,3.0,0,457,13,1,1,0,0,2.0,2.0,1.0,Punishment,MostlyReward,MostlyReward
639,102816_fnca,34,2,Reward,32,5,2.0,0,394,13,1,0,1,0,2.0,3.0,0.0,Reward,MostlyReward,MostlyReward
640,102816_fnca,35,2,Reward,32,5,2.0,0,448,13,2,0,2,0,,2.0,,Reward,MostlyReward,MostlyReward
641,103111_fnca,1,1,Reward,2,5,2.0,0,803,27,1,0,1,0,3.0,,1.0,,MostlyReward,MostlyReward
642,103111_fnca,2,1,Reward,3,5,3.0,0,536,14,1,1,0,0,2.0,2.0,1.0,Reward,MostlyReward,MostlyReward
643,103111_fnca,3,1,Punishment,4,5,2.0,0,486,14,1,0,1,0,2.0,3.0,0.0,Reward,MostlyReward,MostlyReward
644,103111_fnca,4,1,Reward,5,5,2.0,0,387,14,2,0,2,0,3.0,2.0,1.0,Punishment,MostlyReward,MostlyReward
645,103111_fnca,5,1,Reward,6,5,3.0,0,467,14,1,1,0,0,3.0,2.0,0.0,Reward,MostlyReward,MostlyReward
646,103111_fnca,6,1,Reward,7,5,3.0,0,491,14,2,2,0,0,2.0,3.0,1.0,Reward,MostlyReward,MostlyReward
647,103111_fnca,7,1,Neutral,8,5,2.0,0,531,14,1,0,1,0,3.0,3.0,1.0,Reward,MostlyReward,MostlyReward
648,103111_fnca,8,1,Reward,9,5,3.0,0,565,13,1,1,0,0,,2.0,,Neutral,MostlyReward,MostlyReward
649,103111_fnca,10,1,Reward,10,5,3.0,0,543,13,2,2,0,0,2.0,,1.0,,MostlyPunishment,MostlyPunishment
650,103111_fnca,11,1,Punishment,11,5,2.0,0,304,13,1,0,1,0,2.0,3.0,0.0,Reward,MostlyPunishment,MostlyPunishment
651,103111_fnca,12,1,Punishment,12,5,2.0,0,475,14,2,0,2,0,2.0,2.0,0.0,Punishment,MostlyPunishment,MostlyPunishment
652,103111_fnca,13,1,Punishment,13,5,2.0,0,513,14,3,0,3,0,2.0,2.0,0.0,Punishment,MostlyPunishment,MostlyPunishment
653,103111_fnca,14,1,Neutral,14,5,2.0,0,638,13,4,0,4,0,3.0,2.0,1.0,Punishment,MostlyPunishment,MostlyPunishment
654,103111_fnca,15,1,Punishment,15,5,3.0,0,470,13,1,1,0,0,2.0,2.0,1.0,Neutral,MostlyPunishment,MostlyPunishment
655,103111_fnca,16,1,Punishment,16,5,2.0,0,467,13,1,0,1,0,3.0,3.0,1.0,Punishment,MostlyPunishment,MostlyPunishment
656,103111_fnca,17,1,Punishment,17,5,3.0,0,454,14,1,1,0,0,,2.0,,Punishment,MostlyPunishment,MostlyPunishment
657,103111_fnca,19,1,Punishment,18,5,3.0,0,614,13,2,2,0,0,3.0,,0.0,,MostlyPunishment,MostlyPunishment
658,103111_fnca,20,1,Punishment,19,5,3.0,0,338,13,3,3,0,0,3.0,3.0,0.0,Punishment,MostlyPunishment,MostlyPunishment
659,103111_fnca,21,1,Punishment,20,5,3.0,0,501,14,4,4,0,0,2.0,3.0,1.0,Punishment,MostlyPunishment,MostlyPunishment
660,103111_fnca,22,1,Neutral,21,5,2.0,0,237,13,1,0,1,0,3.0,3.0,1.0,Punishment,MostlyPunishment,MostlyPunishment
661,103111_fnca,23,1,Punishment,22,5,3.0,0,392,13,1,1,0,0,2.0,2.0,1.0,Neutral,MostlyPunishment,MostlyPunishment
662,103111_fnca,24,1,Neutral,23,5,2.0,0,361,13,1,0,1,0,2.0,3.0,0.0,Punishment,MostlyPunishment,MostlyPunishment
663,103111_fnca,25,1,Punishment,24,5,2.0,0,448,13,2,0,2,0,3.0,2.0,1.0,Neutral,MostlyPunishment,MostlyPunishment
664,103111_fnca,26,1,Punishment,25,5,3.0,0,442,13,1,1,0,0,,2.0,,Punishment,MostlyPunishment,MostlyPunishment
665,103111_fnca,28,1,Reward,26,5,2.0,0,518,14,1,0,1,0,2.0,,0.0,,MostlyReward,MostlyReward
666,103111_fnca,29,1,Reward,27,5,2.0,0,340,14,2,0,2,0,2.0,2.0,0.0,Reward,MostlyReward,MostlyReward
667,103111_fnca,30,1,Punishment,28,5,2.0,0,526,14,3,0,3,0,2.0,2.0,0.0,Reward,MostlyReward,MostlyReward
668,103111_fnca,31,1,Reward,29,5,2.0,0,386,13,4,0,4,0,3.0,2.0,1.0,Punishment,MostlyReward,MostlyReward
669,103111_fnca,32,1,Punishment,30,5,3.0,0,334,13,1,1,0,0,3.0,2.0,0.0,Reward,MostlyReward,MostlyReward
670,103111_fnca,33,1,Reward,31,5,3.0,0,494,13,2,2,0,0,2.0,3.0,1.0,Punishment,MostlyReward,MostlyReward
671,103111_fnca,34,1,Reward,32,5,2.0,0,314,13,1,0,1,0,3.0,3.0,1.0,Reward,MostlyReward,MostlyReward
672,103111_fnca,35,1,Reward,32,5,3.0,0,274,13,1,1,0,0,,2.0,,Reward,MostlyReward,MostlyReward
673,103111_fnca,1,2,Punishment,2,5,2.0,0,529,27,1,0,1,0,2.0,,0.0,,,MostlyPunishment
674,103111_fnca,2,2,Punishment,3,5,2.0,0,315,13,2,0,2,0,3.0,2.0,1.0,Punishment,,MostlyPunishment
675,103111_fnca,3,2,Reward,4,5,3.0,0,608,13,1,1,0,0,2.0,2.0,1.0,Punishment,,MostlyPunishment
676,103111_fnca,4,2,Punishment,5,5,2.0,0,424,14,1,0,1,0,2.0,3.0,0.0,Reward,,MostlyPunishment
677,103111_fnca,5,2,Reward,6,5,2.0,0,682,14,2,0,2,0,3.0,2.0,1.0,Punishment,,MostlyPunishment
678,103111_fnca,6,2,Punishment,7,5,3.0,0,530,14,1,1,0,0,2.0,2.0,1.0,Reward,,MostlyPunishment
679,103111_fnca,7,2,Punishment,8,5,2.0,0,488,13,1,0,1,0,3.0,3.0,1.0,Punishment,,MostlyPunishment
680,103111_fnca,8,2,Punishment,9,5,3.0,0,486,13,1,1,0,0,,2.0,,Punishment,,MostlyPunishment
681,103111_fnca,10,2,Reward,10,5,2.0,0,652,13,1,0,1,0,2.0,,0.0,,,MostlyReward
682,103111_fnca,11,2,Neutral,11,5,2.0,0,315,13,2,0,2,0,2.0,2.0,0.0,Reward,,MostlyReward
683,103111_fnca,12,2,Reward,12,5,2.0,0,428,14,3,0,3,0,2.0,2.0,0.0,Neutral,,MostlyReward
684,103111_fnca,13,2,Reward,13,5,2.0,0,545,14,4,0,4,0,2.0,2.0,0.0,Reward,,MostlyReward
685,103111_fnca,14,2,Reward,14,5,2.0,0,441,13,5,0,5,0,2.0,2.0,0.0,Reward,,MostlyReward
686,103111_fnca,15,2,Reward,15,5,2.0,0,478,13,6,0,6,0,2.0,2.0,0.0,Reward,,MostlyReward
687,103111_fnca,16,2,Neutral,16,5,2.0,0,451,14,7,0,7,0,3.0,2.0,1.0,Reward,,MostlyReward
688,103111_fnca,17,2,Reward,17,5,3.0,0,514,13,1,1,0,0,,2.0,,Neutral,,MostlyReward
689,103111_fnca,19,2,Punishment,18,5,3.0,0,890,13,2,2,0,0,3.0,,0.0,,,MostlyPunishment
690,103111_fnca,20,2,Punishment,19,5,3.0,0,427,13,3,3,0,0,2.0,3.0,1.0,Punishment,,MostlyPunishment
691,103111_fnca,21,2,Reward,20,5,2.0,0,406,14,1,0,1,0,2.0,3.0,0.0,Punishment,,MostlyPunishment
692,103111_fnca,22,2,Punishment,21,5,2.0,0,459,14,2,0,2,0,2.0,2.0,0.0,Reward,,MostlyPunishment
693,103111_fnca,23,2,Reward,22,5,2.0,0,352,14,3,0,3,0,3.0,2.0,1.0,Punishment,,MostlyPunishment
694,103111_fnca,24,2,Punishment,23,5,3.0,0,437,14,1,1,0,0,2.0,2.0,1.0,Reward,,MostlyPunishment
695,103111_fnca,25,2,Punishment,24,5,2.0,0,429,13,1,0,1,0,3.0,3.0,1.0,Punishment,,MostlyPunishment
696,103111_fnca,26,2,Punishment,25,5,3.0,0,306,13,1,1,0,0,,2.0,,Punishment,,MostlyPunishment
697,103111_fnca,28,2,Reward,26,5,3.0,0,795,13,2,2,0,0,3.0,,0.0,,MostlyReward,MostlyReward
698,103111_fnca,29,2,Reward,27,5,3.0,0,326,14,3,3,0,0,3.0,3.0,0.0,Reward,MostlyReward,MostlyReward
699,103111_fnca,30,2,Punishment,28,5,3.0,0,376,13,4,4,0,0,3.0,3.0,0.0,Reward,MostlyReward,MostlyReward
700,103111_fnca,31,2,Reward,29,5,3.0,0,358,13,5,5,0,0,2.0,3.0,1.0,Punishment,MostlyReward,MostlyReward
701,103111_fnca,32,2,Punishment,30,5,2.0,0,409,13,1,0,1,0,3.0,3.0,1.0,Reward,MostlyReward,MostlyReward
702,103111_fnca,33,2,Reward,31,5,3.0,0,616,13,1,1,0,0,3.0,2.0,0.0,Punishment,MostlyReward,MostlyReward
703,103111_fnca,34,2,Reward,32,5,3.0,0,422,13,2,2,0,0,2.0,3.0,1.0,Reward,MostlyReward,MostlyReward
704,103111_fnca,35,2,Reward,32,5,2.0,0,370,13,1,0,1,0,,3.0,,Reward,MostlyReward,MostlyReward
705,103414_fnca,1,1,Reward,2,5,2.0,0,550,27,1,0,1,0,3.0,,1.0,,MostlyReward,MostlyReward
706,103414_fnca,2,1,Reward,3,5,3.0,0,1406,13,1,1,0,0,2.0,2.0,1.0,Reward,MostlyReward,MostlyReward
707,103414_fnca,3,1,Punishment,4,5,2.0,0,413,13,1,0,1,0,3.0,3.0,1.0,Reward,MostlyReward,MostlyReward
708,103414_fnca,4,1,Reward,5,5,3.0,0,539,13,1,1,0,0,2.0,2.0,1.0,Punishment,MostlyReward,MostlyReward
709,103414_fnca,5,1,Reward,6,5,2.0,0,366,13,1,0,1,0,2.0,3.0,0.0,Reward,MostlyReward,MostlyReward
710,103414_fnca,6,1,Reward,7,5,2.0,0,338,13,2,0,2,0,3.0,2.0,1.0,Reward,MostlyReward,MostlyReward
711,103414_fnca,7,1,Neutral,8,5,3.0,0,576,13,1,1,0,0,3.0,2.0,0.0,Reward,MostlyReward,MostlyReward
712,103414_fnca,8,1,Reward,9,5,3.0,0,448,13,2,2,0,0,,3.0,,Neutral,MostlyReward,MostlyReward
713,103414_fnca,10,1,Reward,10,5,2.0,0,1153,14,1,0,1,0,3.0,,1.0,,MostlyPunishment,MostlyPunishment
714,103414_fnca,11,1,Punishment,11,5,3.0,0,483,13,1,1,0,0,2.0,2.0,1.0,Reward,MostlyPunishment,MostlyPunishment
715,103414_fnca,12,1,Punishment,12,5,2.0,0,421,13,1,0,1,0,2.0,3.0,0.0,Punishment,MostlyPunishment,MostlyPunishment
716,103414_fnca,13,1,Punishment,13,5,2.0,0,359,13,2,0,2,0,3.0,2.0,1.0,Punishment,MostlyPunishment,MostlyPunishment
717,103414_fnca,14,1,Neutral,14,5,3.0,0,308,14,1,1,0,0,2.0,2.0,1.0,Punishment,MostlyPunishment,MostlyPunishment
718,103414_fnca,15,1,Punishment,15,5,2.0,0,331,14,1,0,1,0,3.0,3.0,1.0,Neutral,MostlyPunishment,MostlyPunishment
719,103414_fnca,16,1,Punishment,16,5,3.0,0,301,13,1,1,0,0,3.0,2.0,0.0,Punishment,MostlyPunishment,MostlyPunishment
720,103414_fnca,17,1,Punishment,17,5,3.0,0,298,14,2,2,0,0,,3.0,,Punishment,MostlyPunishment,MostlyPunishment
721,103414_fnca,19,1,Punishment,18,5,2.0,0,667,14,1,0,1,0,3.0,,1.0,,MostlyPunishment,MostlyPunishment
722,103414_fnca,20,1,Punishment,19,5,3.0,0,527,13,1,1,0,0,3.0,2.0,0.0,Punishment,MostlyPunishment,MostlyPunishment
723,103414_fnca,21,1,Punishment,20,5,3.0,0,755,13,2,2,0,0,3.0,3.0,0.0,Punishment,MostlyPunishment,MostlyPunishment
724,103414_fnca,22,1,Neutral,21,5,3.0,0,353,14,3,3,0,0,3.0,3.0,0.0,Punishment,MostlyPunishment,MostlyPunishment
725,103414_fnca,23,1,Punishment,22,5,3.0,0,533,14,4,4,0,0,2.0,3.0,1.0,Neutral,MostlyPunishment,MostlyPunishment
726,103414_fnca,24,1,Neutral,23,5,2.0,0,281,13,1,0,1,0,2.0,3.0,0.0,Punishment,MostlyPunishment,MostlyPunishment
727,103414_fnca,25,1,Punishment,24,5,2.0,0,361,13,2,0,2,0,2.0,2.0,0.0,Neutral,MostlyPunishment,MostlyPunishment
728,103414_fnca,26,1,Punishment,25,5,2.0,0,322,13,3,0,3,0,,2.0,,Punishment,MostlyPunishment,MostlyPunishment
729,103414_fnca,28,1,Reward,26,5,3.0,0,824,13,1,1,0,0,3.0,,0.0,,MostlyReward,MostlyReward
730,103414_fnca,29,1,Reward,27,5,3.0,0,385,13,2,2,0,0,2.0,3.0,1.0,Reward,MostlyReward,MostlyReward
731,103414_fnca,30,1,Punishment,28,5,2.0,0,650,13,1,0,1,0,3.0,3.0,1.0,Reward,MostlyReward,MostlyReward
732,103414_fnca,31,1,Reward,29,5,3.0,0,639,14,1,1,0,0,3.0,2.0,0.0,Punishment,MostlyReward,MostlyReward
733,103414_fnca,32,1,Punishment,30,5,3.0,0,294,13,2,2,0,0,2.0,3.0,1.0,Reward,MostlyReward,MostlyReward
734,103414_fnca,33,1,Reward,31,5,2.0,0,340,13,1,0,1,0,2.0,3.0,0.0,Punishment,MostlyReward,MostlyReward
735,103414_fnca,34,1,Reward,32,5,2.0,0,272,13,2,0,2,0,3.0,2.0,1.0,Reward,MostlyReward,MostlyReward
736,103414_fnca,35,1,Reward,32,5,3.0,0,289,14,1,1,0,0,,2.0,,Reward,MostlyReward,MostlyReward
737,103414_fnca,1,2,Punishment,2,5,3.0,0,567,27,1,1,0,0,2.0,,1.0,,,MostlyPunishment
738,103414_fnca,2,2,Punishment,3,5,2.0,0,436,13,1,0,1,0,2.0,3.0,0.0,Punishment,,MostlyPunishment
739,103414_fnca,3,2,Reward,4,5,2.0,0,525,13,2,0,2,0,2.0,2.0,0.0,Punishment,,MostlyPunishment
740,103414_fnca,4,2,Punishment,5,5,2.0,0,362,13,3,0,3,0,2.0,2.0,0.0,Reward,,MostlyPunishment
741,103414_fnca,5,2,Reward,6,5,2.0,0,509,13,4,0,4,0,3.0,2.0,1.0,Punishment,,MostlyPunishment
742,103414_fnca,6,2,Punishment,7,5,3.0,0,470,14,1,1,0,0,3.0,2.0,0.0,Reward,,MostlyPunishment
743,103414_fnca,7,2,Punishment,8,5,3.0,0,536,13,2,2,0,0,3.0,3.0,0.0,Punishment,,MostlyPunishment
744,103414_fnca,8,2,Punishment,9,5,3.0,0,475,14,3,3,0,0,,3.0,,Punishment,,MostlyPunishment
745,103414_fnca,10,2,Reward,10,5,2.0,0,843,14,1,0,1,0,2.0,,0.0,,,MostlyReward
746,103414_fnca,11,2,Neutral,11,5,2.0,0,346,14,2,0,2,0,3.0,2.0,1.0,Reward,,MostlyReward
747,103414_fnca,12,2,Reward,12,5,3.0,0,660,13,1,1,0,0,2.0,2.0,1.0,Neutral,,MostlyReward
748,103414_fnca,13,2,Reward,13,5,2.0,0,294,13,1,0,1,0,3.0,3.0,1.0,Reward,,MostlyReward
749,103414_fnca,14,2,Reward,14,5,3.0,0,294,14,1,1,0,0,3.0,2.0,0.0,Reward,,MostlyReward
750,103414_fnca,15,2,Reward,15,5,3.0,0,315,13,2,2,0,0,2.0,3.0,1.0,Reward,,MostlyReward
751,103414_fnca,16,2,Neutral,16,5,2.0,0,290,13,1,0,1,0,2.0,3.0,0.0,Reward,,MostlyReward
752,103414_fnca,17,2,Reward,17,5,2.0,0,293,13,2,0,2,0,,2.0,,Neutral,,MostlyReward
753,103414_fnca,19,2,Punishment,18,5,3.0,0,668,13,1,1,0,0,2.0,,1.0,,,MostlyPunishment
754,103414_fnca,20,2,Punishment,19,5,2.0,0,349,13,1,0,1,0,3.0,3.0,1.0,Punishment,,MostlyPunishment
755,103414_fnca,21,2,Reward,20,5,3.0,0,418,14,1,1,0,0,3.0,2.0,0.0,Punishment,,MostlyPunishment
756,103414_fnca,22,2,Punishment,21,5,3.0,0,452,13,2,2,0,0,2.0,3.0,1.0,Reward,,MostlyPunishment
757,103414_fnca,23,2,Reward,22,5,2.0,0,297,13,1,0,1,0,2.0,3.0,0.0,Punishment,,MostlyPunishment
758,103414_fnca,24,2,Punishment,23,5,2.0,0,386,13,2,0,2,0,3.0,2.0,1.0,Reward,,MostlyPunishment
759,103414_fnca,25,2,Punishment,24,5,3.0,0,454,14,1,1,0,0,2.0,2.0,1.0,Punishment,,MostlyPunishment
760,103414_fnca,26,2,Punishment,25,5,2.0,0,363,14,1,0,1,0,,3.0,,Punishment,,MostlyPunishment
761,103414_fnca,28,2,Reward,26,5,2.0,0,733,13,2,0,2,0,2.0,,0.0,,MostlyReward,MostlyReward
762,103414_fnca,29,2,Reward,27,5,2.0,0,572,14,3,0,3,0,2.0,2.0,0.0,Reward,MostlyReward,MostlyReward
763,103414_fnca,30,2,Punishment,28,5,2.0,0,675,14,4,0,4,0,2.0,2.0,0.0,Reward,MostlyReward,MostlyReward
764,103414_fnca,31,2,Reward,29,5,2.0,0,517,13,5,0,5,0,3.0,2.0,1.0,Punishment,MostlyReward,MostlyReward
765,103414_fnca,32,2,Punishment,30,5,3.0,0,925,14,1,1,0,0,3.0,2.0,0.0,Reward,MostlyReward,MostlyReward
766,103414_fnca,33,2,Reward,31,5,3.0,0,289,14,2,2,0,0,3.0,3.0,0.0,Punishment,MostlyReward,MostlyReward
767,103414_fnca,34,2,Reward,32,5,3.0,0,310,14,3,3,0,0,3.0,3.0,0.0,Reward,MostlyReward,MostlyReward
768,103414_fnca,35,2,Reward,32,5,3.0,0,430,13,4,4,0,0,,3.0,,Reward,MostlyReward,MostlyReward
769,103515_fnca,1,1,Reward,2,5,2.0,0,1174,27,1,0,1,0,3.0,,1.0,,MostlyReward,MostlyReward
770,103515_fnca,2,1,Reward,3,5,3.0,0,301,14,1,1,0,0,2.0,2.0,1.0,Reward,MostlyReward,MostlyReward
771,103515_fnca,3,1,Punishment,4,5,2.0,0,64,14,1,0,1,1,2.0,3.0,0.0,Reward,MostlyReward,MostlyReward
772,103515_fnca,4,1,Reward,5,5,2.0,0,1261,14,2,0,2,0,3.0,2.0,1.0,Punishment,MostlyReward,MostlyReward
773,103515_fnca,5,1,Reward,6,5,3.0,0,920,13,1,1,0,0,3.0,2.0,0.0,Reward,MostlyReward,MostlyReward
774,103515_fnca,6,1,Reward,7,5,3.0,0,802,13,2,2,0,0,2.0,3.0,1.0,Reward,MostlyReward,MostlyReward
775,103515_fnca,7,1,Neutral,8,5,2.0,0,174,14,1,0,1,1,2.0,3.0,0.0,Reward,MostlyReward,MostlyReward
776,103515_fnca,8,1,Reward,9,5,2.0,0,674,13,2,0,2,0,,2.0,,Neutral,MostlyReward,MostlyReward
777,103515_fnca,10,1,Reward,10,5,2.0,0,793,13,3,0,3,0,2.0,,0.0,,MostlyPunishment,MostlyPunishment
778,103515_fnca,11,1,Punishment,11,5,2.0,0,635,13,4,0,4,0,3.0,2.0,1.0,Reward,MostlyPunishment,MostlyPunishment
779,103515_fnca,12,1,Punishment,12,5,3.0,0,339,13,1,1,0,0,3.0,2.0,0.0,Punishment,MostlyPunishment,MostlyPunishment
780,103515_fnca,13,1,Punishment,13,5,3.0,0,527,13,2,2,0,0,2.0,3.0,1.0,Punishment,MostlyPunishment,MostlyPunishment
781,103515_fnca,14,1,Neutral,14,5,2.0,0,485,13,1,0,1,0,2.0,3.0,0.0,Punishment,MostlyPunishment,MostlyPunishment
782,103515_fnca,15,1,Punishment,15,5,2.0,0,441,14,2,0,2,0,3.0,2.0,1.0,Neutral,MostlyPunishment,MostlyPunishment
783,103515_fnca,16,1,Punishment,16,5,3.0,0,664,14,1,1,0,0,2.0,2.0,1.0,Punishment,MostlyPunishment,MostlyPunishment
784,103515_fnca,17,1,Punishment,17,5,2.0,0,538,13,1,0,1,0,,3.0,,Punishment,MostlyPunishment,MostlyPunishment
785,103515_fnca,19,1,Punishment,18,5,3.0,0,396,13,1,1,0,0,3.0,,0.0,,MostlyPunishment,MostlyPunishment
786,103515_fnca,20,1,Punishment,19,5,3.0,0,304,13,2,2,0,0,3.0,3.0,0.0,Punishment,MostlyPunishment,MostlyPunishment
787,103515_fnca,21,1,Punishment,20,5,3.0,0,677,14,3,3,0,0,2.0,3.0,1.0,Punishment,MostlyPunishment,MostlyPunishment
788,103515_fnca,22,1,Neutral,21,5,2.0,0,355,13,1,0,1,0,2.0,3.0,0.0,Punishment,MostlyPunishment,MostlyPunishment
789,103515_fnca,23,1,Punishment,22,5,2.0,0,399,13,2,0,2,0,2.0,2.0,0.0,Neutral,MostlyPunishment,MostlyPunishment
790,103515_fnca,24,1,Neutral,23,5,2.0,0,374,13,3,0,3,0,3.0,2.0,1.0,Punishment,MostlyPunishment,MostlyPunishment
791,103515_fnca,25,1,Punishment,24,5,3.0,0,346,13,1,1,0,0,2.0,2.0,1.0,Neutral,MostlyPunishment,MostlyPunishment
792,103515_fnca,26,1,Punishment,25,5,2.0,0,523,13,1,0,1,0,,3.0,,Punishment,MostlyPunishment,MostlyPunishment
793,103515_fnca,28,1,Reward,26,5,3.0,0,568,14,1,1,0,0,2.0,,1.0,,MostlyReward,MostlyReward
794,103515_fnca,29,1,Reward,27,5,2.0,0,289,13,1,0,1,0,2.0,3.0,0.0,Reward,MostlyReward,MostlyReward
795,103515_fnca,30,1,Punishment,28,5,2.0,0,459,14,2,0,2,0,3.0,2.0,1.0,Reward,MostlyReward,MostlyReward
796,103515_fnca,31,1,Reward,29,5,3.0,0,465,13,1,1,0,0,2.0,2.0,1.0,Punishment,MostlyReward,MostlyReward
797,103515_fnca,32,1,Punishment,30,5,2.0,0,256,13,1,0,1,0,3.0,3.0,1.0,Reward,MostlyReward,MostlyReward
798,103515_fnca,33,1,Reward,31,5,3.0,0,318,13,1,1,0,0,3.0,2.0,0.0,Punishment,MostlyReward,MostlyReward
799,103515_fnca,34,1,Reward,32,5,3.0,0,251,13,2,2,0,0,2.0,3.0,1.0,Reward,MostlyReward,MostlyReward
800,103515_fnca,35,1,Reward,32,5,2.0,0,248,14,1,0,1,0,,3.0,,Reward,MostlyReward,MostlyReward
801,103515_fnca,1,2,Punishment,2,5,2.0,0,883,27,1,0,1,0,2.0,,0.0,,,MostlyPunishment
802,103515_fnca,2,2,Punishment,3,5,2.0,0,281,13,2,0,2,0,3.0,2.0,1.0,Punishment,,MostlyPunishment
803,103515_fnca,3,2,Reward,4,5,3.0,0,323,13,1,1,0,0,3.0,2.0,0.0,Punishment,,MostlyPunishment
804,103515_fnca,4,2,Punishment,5,5,3.0,0,503,14,2,2,0,0,3.0,3.0,0.0,Reward,,MostlyPunishment
805,103515_fnca,5,2,Reward,6,5,3.0,0,260,13,3,3,0,0,2.0,3.0,1.0,Punishment,,MostlyPunishment
806,103515_fnca,6,2,Punishment,7,5,2.0,0,290,14,1,0,1,0,2.0,3.0,0.0,Reward,,MostlyPunishment
807,103515_fnca,7,2,Punishment,8,5,2.0,0,305,14,2,0,2,0,3.0,2.0,1.0,Punishment,,MostlyPunishment
808,103515_fnca,8,2,Punishment,9,5,3.0,0,244,14,1,1,0,0,,2.0,,Punishment,,MostlyPunishment
809,103515_fnca,10,2,Reward,10,5,2.0,0,436,13,1,0,1,0,2.0,,0.0,,,MostlyReward
810,103515_fnca,11,2,Neutral,11,5,2.0,0,264,14,2,0,2,0,2.0,2.0,0.0,Reward,,MostlyReward
811,103515_fnca,12,2,Reward,12,5,2.0,0,421,14,3,0,3,0,3.0,2.0,1.0,Neutral,,MostlyReward
812,103515_fnca,13,2,Reward,13,5,3.0,0,249,13,1,1,0,0,3.0,2.0,0.0,Reward,,MostlyReward
813,103515_fnca,14,2,Reward,14,5,3.0,0,279,13,2,2,0,0,2.0,3.0,1.0,Reward,,MostlyReward
814,103515_fnca,15,2,Reward,15,5,2.0,0,295,13,1,0,1,0,2.0,3.0,0.0,Reward,,MostlyReward
815,103515_fnca,16,2,Neutral,16,5,2.0,0,287,14,2,0,2,0,3.0,2.0,1.0,Reward,,MostlyReward
816,103515_fnca,17,2,Reward,17,5,3.0,0,237,13,1,1,0,0,,2.0,,Neutral,,MostlyReward
817,103515_fnca,19,2,Punishment,18,5,3.0,0,634,13,2,2,0,0,2.0,,1.0,,,MostlyPunishment
818,103515_fnca,20,2,Punishment,19,5,2.0,0,263,13,1,0,1,0,2.0,3.0,0.0,Punishment,,MostlyPunishment
819,103515_fnca,21,2,Reward,20,5,2.0,0,266,14,2,0,2,0,2.0,2.0,0.0,Punishment,,MostlyPunishment
820,103515_fnca,22,2,Punishment,21,5,2.0,0,232,13,3,0,3,0,3.0,2.0,1.0,Reward,,MostlyPunishment
821,103515_fnca,23,2,Reward,22,5,3.0,0,257,13,1,1,0,0,3.0,2.0,0.0,Punishment,,MostlyPunishment
822,103515_fnca,24,2,Punishment,23,5,3.0,0,233,13,2,2,0,0,2.0,3.0,1.0,Reward,,MostlyPunishment
823,103515_fnca,25,2,Punishment,24,5,2.0,0,255,13,1,0,1,0,3.0,3.0,1.0,Punishment,,MostlyPunishment
824,103515_fnca,26,2,Punishment,25,5,3.0,0,290,14,1,1,0,0,,2.0,,Punishment,,MostlyPunishment
825,103515_fnca,28,2,Reward,26,5,2.0,0,548,14,1,0,1,0,2.0,,0.0,,MostlyReward,MostlyReward
826,103515_fnca,29,2,Reward,27,5,2.0,0,330,13,2,0,2,0,3.0,2.0,1.0,Reward,MostlyReward,MostlyReward
827,103515_fnca,30,2,Punishment,28,5,3.0,0,272,13,1,1,0,0,2.0,2.0,1.0,Reward,MostlyReward,MostlyReward
828,103515_fnca,31,2,Reward,29,5,2.0,0,316,14,1,0,1,0,2.0,3.0,0.0,Punishment,MostlyReward,MostlyReward
829,103515_fnca,32,2,Punishment,30,5,2.0,0,458,14,2,0,2,0,3.0,2.0,1.0,Reward,MostlyReward,MostlyReward
830,103515_fnca,33,2,Reward,31,5,3.0,0,244,14,1,1,0,0,3.0,2.0,0.0,Punishment,MostlyReward,MostlyReward
831,103515_fnca,34,2,Reward,32,5,3.0,0,208,13,2,2,0,0,3.0,3.0,0.0,Reward,MostlyReward,MostlyReward
832,103515_fnca,35,2,Reward,32,5,3.0,0,291,13,3,3,0,0,,3.0,,Reward,MostlyReward,MostlyReward
833,103818_fnca,1,1,Reward,2,5,3.0,0,527,27,1,1,0,0,3.0,,0.0,,MostlyReward,MostlyReward
834,103818_fnca,2,1,Reward,3,5,3.0,0,709,13,2,2,0,0,2.0,3.0,1.0,Reward,MostlyReward,MostlyReward
835,103818_fnca,3,1,Punishment,4,5,2.0,0,922,14,1,0,1,0,2.0,3.0,0.0,Reward,MostlyReward,MostlyReward
836,103818_fnca,4,1,Reward,5,5,2.0,0,773,14,2,0,2,0,3.0,2.0,1.0,Punishment,MostlyReward,MostlyReward
837,103818_fnca,5,1,Reward,6,5,3.0,0,1041,13,1,1,0,0,3.0,2.0,0.0,Reward,MostlyReward,MostlyReward
838,103818_fnca,6,1,Reward,7,5,3.0,0,568,13,2,2,0,0,3.0,3.0,0.0,Reward,MostlyReward,MostlyReward
839,103818_fnca,7,1,Neutral,8,5,3.0,0,655,13,3,3,0,0,3.0,3.0,0.0,Reward,MostlyReward,MostlyReward
840,103818_fnca,8,1,Reward,9,5,3.0,0,586,13,4,4,0,0,,3.0,,Neutral,MostlyReward,MostlyReward
841,103818_fnca,10,1,Reward,10,5,2.0,0,866,14,1,0,1,0,3.0,,1.0,,MostlyPunishment,MostlyPunishment
842,103818_fnca,11,1,Punishment,11,5,3.0,0,851,14,1,1,0,0,2.0,2.0,1.0,Reward,MostlyPunishment,MostlyPunishment
843,103818_fnca,12,1,Punishment,12,5,2.0,0,906,13,1,0,1,0,3.0,3.0,1.0,Punishment,MostlyPunishment,MostlyPunishment
844,103818_fnca,13,1,Punishment,13,5,3.0,0,981,13,1,1,0,0,3.0,2.0,0.0,Punishment,MostlyPunishment,MostlyPunishment
845,103818_fnca,14,1,Neutral,14,5,3.0,0,778,13,2,2,0,0,3.0,3.0,0.0,Punishment,MostlyPunishment,MostlyPunishment
846,103818_fnca,15,1,Punishment,15,5,3.0,0,597,14,3,3,0,0,3.0,3.0,0.0,Neutral,MostlyPunishment,MostlyPunishment
847,103818_fnca,16,1,Punishment,16,5,3.0,0,645,13,4,4,0,0,2.0,3.0,1.0,Punishment,MostlyPunishment,MostlyPunishment
848,103818_fnca,17,1,Punishment,17,5,2.0,0,595,13,1,0,1,0,,3.0,,Punishment,MostlyPunishment,MostlyPunishment
849,103818_fnca,19,1,Punishment,18,5,3.0,0,809,14,1,1,0,0,3.0,,0.0,,MostlyPunishment,MostlyPunishment
850,103818_fnca,20,1,Punishment,19,5,3.0,0,405,14,2,2,0,0,3.0,3.0,0.0,Punishment,MostlyPunishment,MostlyPunishment
851,103818_fnca,21,1,Punishment,20,5,3.0,0,660,14,3,3,0,0,3.0,3.0,0.0,Punishment,MostlyPunishment,MostlyPunishment
852,103818_fnca,22,1,Neutral,21,5,3.0,0,943,13,4,4,0,0,3.0,3.0,0.0,Punishment,MostlyPunishment,MostlyPunishment
853,103818_fnca,23,1,Punishment,22,5,3.0,0,471,13,5,5,0,0,2.0,3.0,1.0,Neutral,MostlyPunishment,MostlyPunishment
854,103818_fnca,24,1,Neutral,23,5,2.0,0,362,14,1,0,1,0,2.0,3.0,0.0,Punishment,MostlyPunishment,MostlyPunishment
855,103818_fnca,25,1,Punishment,24,5,2.0,0,562,14,2,0,2,0,2.0,2.0,0.0,Neutral,MostlyPunishment,MostlyPunishment
856,103818_fnca,26,1,Punishment,25,5,2.0,0,476,14,3,0,3,0,,2.0,,Punishment,MostlyPunishment,MostlyPunishment
857,103818_fnca,28,1,Reward,26,5,3.0,0,419,13,1,1,0,0,3.0,,0.0,,MostlyReward,MostlyReward
858,103818_fnca,29,1,Reward,27,5,3.0,0,465,13,2,2,0,0,3.0,3.0,0.0,Reward,MostlyReward,MostlyReward
859,103818_fnca,30,1,Punishment,28,5,3.0,0,519,13,3,3,0,0,2.0,3.0,1.0,Reward,MostlyReward,MostlyReward
860,103818_fnca,31,1,Reward,29,5,2.0,0,763,13,1,0,1,0,3.0,3.0,1.0,Punishment,MostlyReward,MostlyReward
861,103818_fnca,32,1,Punishment,30,5,3.0,0,585,14,1,1,0,0,2.0,2.0,1.0,Reward,MostlyReward,MostlyReward
862,103818_fnca,33,1,Reward,31,5,2.0,0,554,14,1,0,1,0,2.0,3.0,0.0,Punishment,MostlyReward,MostlyReward
863,103818_fnca,34,1,Reward,32,5,2.0,0,438,13,2,0,2,0,2.0,2.0,0.0,Reward,MostlyReward,MostlyReward
864,103818_fnca,35,1,Reward,32,5,2.0,0,751,13,3,0,3,0,,2.0,,Reward,MostlyReward,MostlyReward
865,103818_fnca,1,2,Punishment,2,5,2.0,0,489,26,1,0,1,0,2.0,,0.0,,,MostlyPunishment
866,103818_fnca,2,2,Punishment,3,5,2.0,0,358,13,2,0,2,0,3.0,2.0,1.0,Punishment,,MostlyPunishment
867,103818_fnca,3,2,Reward,4,5,3.0,0,480,14,1,1,0,0,3.0,2.0,0.0,Punishment,,MostlyPunishment
868,103818_fnca,4,2,Punishment,5,5,3.0,0,480,13,2,2,0,0,2.0,3.0,1.0,Reward,,MostlyPunishment
869,103818_fnca,5,2,Reward,6,5,2.0,0,431,13,1,0,1,0,2.0,3.0,0.0,Punishment,,MostlyPunishment
870,103818_fnca,6,2,Punishment,7,5,2.0,0,347,14,2,0,2,0,3.0,2.0,1.0,Reward,,MostlyPunishment
871,103818_fnca,7,2,Punishment,8,5,3.0,0,434,14,1,1,0,0,3.0,2.0,0.0,Punishment,,MostlyPunishment
872,103818_fnca,8,2,Punishment,9,5,3.0,0,452,13,2,2,0,0,,3.0,,Punishment,,MostlyPunishment
873,103818_fnca,10,2,Reward,10,5,2.0,0,400,13,1,0,1,0,2.0,,0.0,,,MostlyReward
874,103818_fnca,11,2,Neutral,11,5,2.0,0,278,13,2,0,2,0,2.0,2.0,0.0,Reward,,MostlyReward
875,103818_fnca,12,2,Reward,12,5,2.0,0,362,13,3,0,3,0,2.0,2.0,0.0,Neutral,,MostlyReward
876,103818_fnca,13,2,Reward,13,5,2.0,0,422,13,4,0,4,0,2.0,2.0,0.0,Reward,,MostlyReward
877,103818_fnca,14,2,Reward,14,5,2.0,0,393,14,5,0,5,0,3.0,2.0,1.0,Reward,,MostlyReward
878,103818_fnca,15,2,Reward,15,5,3.0,0,321,14,1,1,0,0,3.0,2.0,0.0,Reward,,MostlyReward
879,103818_fnca,16,2,Neutral,16,5,3.0,0,366,13,2,2,0,0,3.0,3.0,0.0,Reward,,MostlyReward
880,103818_fnca,17,2,Reward,17,5,3.0,0,386,13,3,3,0,0,,3.0,,Neutral,,MostlyReward
881,103818_fnca,19,2,Punishment,18,5,2.0,0,449,13,1,0,1,0,2.0,,0.0,,,MostlyPunishment
882,103818_fnca,20,2,Punishment,19,5,2.0,0,420,14,2,0,2,0,3.0,2.0,1.0,Punishment,,MostlyPunishment
883,103818_fnca,21,2,Reward,20,5,3.0,0,487,13,1,1,0,0,3.0,2.0,0.0,Punishment,,MostlyPunishment
884,103818_fnca,22,2,Punishment,21,5,3.0,0,410,14,2,2,0,0,3.0,3.0,0.0,Reward,,MostlyPunishment
885,103818_fnca,23,2,Reward,22,5,3.0,0,363,14,3,3,0,0,3.0,3.0,0.0,Punishment,,MostlyPunishment
886,103818_fnca,24,2,Punishment,23,5,3.0,0,345,13,4,4,0,0,3.0,3.0,0.0,Reward,,MostlyPunishment
887,103818_fnca,25,2,Punishment,24,5,3.0,0,268,13,5,5,0,0,2.0,3.0,1.0,Punishment,,MostlyPunishment
888,103818_fnca,26,2,Punishment,25,5,2.0,0,283,13,1,0,1,0,,3.0,,Punishment,,MostlyPunishment
889,103818_fnca,28,2,Reward,26,5,3.0,0,352,13,1,1,0,0,3.0,,0.0,,MostlyReward,MostlyReward
890,103818_fnca,29,2,Reward,27,5,3.0,0,245,14,2,2,0,0,3.0,3.0,0.0,Reward,MostlyReward,MostlyReward
891,103818_fnca,30,2,Punishment,28,5,3.0,0,273,13,3,3,0,0,3.0,3.0,0.0,Reward,MostlyReward,MostlyReward
892,103818_fnca,31,2,Reward,29,5,3.0,0,321,14,4,4,0,0,3.0,3.0,0.0,Punishment,MostlyReward,MostlyReward
893,103818_fnca,32,2,Punishment,30,5,3.0,0,439,14,5,5,0,0,2.0,3.0,1.0,Reward,MostlyReward,MostlyReward
894,103818_fnca,33,2,Reward,31,5,2.0,0,231,13,1,0,1,0,2.0,3.0,0.0,Punishment,MostlyReward,MostlyReward
895,103818_fnca,34,2,Reward,32,5,2.0,0,225,14,2,0,2,0,2.0,2.0,0.0,Reward,MostlyReward,MostlyReward
896,103818_fnca,35,2,Reward,32,5,2.0,0,260,13,3,0,3,0,,2.0,,Reward,MostlyReward,MostlyReward
897,104820_fnca,1,1,Reward,2,5,3.0,0,532,27,1,1,0,0,2.0,,1.0,,MostlyReward,MostlyReward
898,104820_fnca,2,1,Reward,3,5,2.0,0,481,14,1,0,1,0,2.0,3.0,0.0,Reward,MostlyReward,MostlyReward
899,104820_fnca,3,1,Punishment,4,5,2.0,0,836,14,2,0,2,0,3.0,2.0,1.0,Reward,MostlyReward,MostlyReward
900,104820_fnca,4,1,Reward,5,5,3.0,0,641,14,1,1,0,0,3.0,2.0,0.0,Punishment,MostlyReward,MostlyReward
901,104820_fnca,5,1,Reward,6,5,3.0,0,495,13,2,2,0,0,2.0,3.0,1.0,Reward,MostlyReward,MostlyReward
902,104820_fnca,6,1,Reward,7,5,2.0,0,574,13,1,0,1,0,2.0,3.0,0.0,Reward,MostlyReward,MostlyReward
903,104820_fnca,7,1,Neutral,8,5,2.0,0,1422,13,2,0,2,0,2.0,2.0,0.0,Reward,MostlyReward,MostlyReward
904,104820_fnca,8,1,Reward,9,5,2.0,0,271,14,3,0,3,0,,2.0,,Neutral,MostlyReward,MostlyReward
905,104820_fnca,10,1,Reward,10,5,3.0,0,657,14,1,1,0,0,3.0,,0.0,,MostlyPunishment,MostlyPunishment
906,104820_fnca,11,1,Punishment,11,5,3.0,0,312,13,2,2,0,0,3.0,3.0,0.0,Reward,MostlyPunishment,MostlyPunishment
907,104820_fnca,12,1,Punishment,12,5,3.0,0,460,14,3,3,0,0,3.0,3.0,0.0,Punishment,MostlyPunishment,MostlyPunishment
908,104820_fnca,13,1,Punishment,13,5,3.0,0,543,13,4,4,0,0,2.0,3.0,1.0,Punishment,MostlyPunishment,MostlyPunishment
909,104820_fnca,14,1,Neutral,14,5,2.0,0,319,13,1,0,1,0,2.0,3.0,0.0,Punishment,MostlyPunishment,MostlyPunishment
910,104820_fnca,15,1,Punishment,15,5,2.0,0,329,13,2,0,2,0,3.0,2.0,1.0,Neutral,MostlyPunishment,MostlyPunishment
911,104820_fnca,16,1,Punishment,16,5,3.0,0,269,14,1,1,0,0,3.0,2.0,0.0,Punishment,MostlyPunishment,MostlyPunishment
912,104820_fnca,17,1,Punishment,17,5,3.0,0,706,13,2,2,0,0,,3.0,,Punishment,MostlyPunishment,MostlyPunishment
913,104820_fnca,19,1,Punishment,18,5,3.0,0,502,13,3,3,0,0,3.0,,0.0,,MostlyPunishment,MostlyPunishment
914,104820_fnca,20,1,Punishment,19,5,3.0,0,394,13,4,4,0,0,2.0,3.0,1.0,Punishment,MostlyPunishment,MostlyPunishment
915,104820_fnca,21,1,Punishment,20,5,2.0,0,240,13,1,0,1,0,2.0,3.0,0.0,Punishment,MostlyPunishment,MostlyPunishment
916,104820_fnca,22,1,Neutral,21,5,2.0,0,464,13,2,0,2,0,3.0,2.0,1.0,Punishment,MostlyPunishment,MostlyPunishment
917,104820_fnca,23,1,Punishment,22,5,3.0,0,399,13,1,1,0,0,2.0,2.0,1.0,Neutral,MostlyPunishment,MostlyPunishment
918,104820_fnca,24,1,Neutral,23,5,2.0,0,289,13,1,0,1,0,2.0,3.0,0.0,Punishment,MostlyPunishment,MostlyPunishment
919,104820_fnca,25,1,Punishment,24,5,2.0,0,260,13,2,0,2,0,3.0,2.0,1.0,Neutral,MostlyPunishment,MostlyPunishment
920,104820_fnca,26,1,Punishment,25,5,3.0,0,296,14,1,1,0,0,,2.0,,Punishment,MostlyPunishment,MostlyPunishment
921,104820_fnca,28,1,Reward,26,5,2.0,0,1090,13,1,0,1,0,2.0,,0.0,,MostlyReward,MostlyReward
922,104820_fnca,29,1,Reward,27,5,2.0,0,550,13,2,0,2,0,2.0,2.0,0.0,Reward,MostlyReward,MostlyReward
923,104820_fnca,30,1,Punishment,28,5,2.0,0,400,13,3,0,3,0,2.0,2.0,0.0,Reward,MostlyReward,MostlyReward
924,104820_fnca,31,1,Reward,29,5,2.0,0,720,13,4,0,4,0,3.0,2.0,1.0,Punishment,MostlyReward,MostlyReward
925,104820_fnca,32,1,Punishment,30,5,3.0,0,378,13,1,1,0,0,3.0,2.0,0.0,Reward,MostlyReward,MostlyReward
926,104820_fnca,33,1,Reward,31,5,3.0,0,623,13,2,2,0,0,2.0,3.0,1.0,Punishment,MostlyReward,MostlyReward
927,104820_fnca,34,1,Reward,32,5,2.0,0,335,14,1,0,1,0,2.0,3.0,0.0,Reward,MostlyReward,MostlyReward
928,104820_fnca,35,1,Reward,32,5,2.0,0,440,14,2,0,2,0,,2.0,,Reward,MostlyReward,MostlyReward
929,104820_fnca,1,2,Punishment,2,5,2.0,0,376,27,1,0,1,0,3.0,,1.0,,,MostlyPunishment
930,104820_fnca,2,2,Punishment,3,5,3.0,0,491,13,1,1,0,0,3.0,2.0,0.0,Punishment,,MostlyPunishment
931,104820_fnca,3,2,Reward,4,5,3.0,0,367,14,2,2,0,0,3.0,3.0,0.0,Punishment,,MostlyPunishment
932,104820_fnca,4,2,Punishment,5,5,3.0,0,455,13,3,3,0,0,2.0,3.0,1.0,Reward,,MostlyPunishment
933,104820_fnca,5,2,Reward,6,5,2.0,0,271,13,1,0,1,0,2.0,3.0,0.0,Punishment,,MostlyPunishment
934,104820_fnca,6,2,Punishment,7,5,2.0,0,500,13,2,0,2,0,3.0,2.0,1.0,Reward,,MostlyPunishment
935,104820_fnca,7,2,Punishment,8,5,3.0,0,371,13,1,1,0,0,3.0,2.0,0.0,Punishment,,MostlyPunishment
936,104820_fnca,8,2,Punishment,9,5,3.0,0,394,13,2,2,0,0,,3.0,,Punishment,,MostlyPunishment
937,104820_fnca,10,2,Reward,10,5,2.0,0,388,13,1,0,1,0,2.0,,0.0,,,MostlyReward
938,104820_fnca,11,2,Neutral,11,5,2.0,0,416,13,2,0,2,0,2.0,2.0,0.0,Reward,,MostlyReward
939,104820_fnca,12,2,Reward,12,5,2.0,0,335,13,3,0,3,0,3.0,2.0,1.0,Neutral,,MostlyReward
940,104820_fnca,13,2,Reward,13,5,3.0,0,326,13,1,1,0,0,3.0,2.0,0.0,Reward,,MostlyReward
941,104820_fnca,14,2,Reward,14,5,3.0,0,440,13,2,2,0,0,3.0,3.0,0.0,Reward,,MostlyReward
942,104820_fnca,15,2,Reward,15,5,3.0,0,451,13,3,3,0,0,2.0,3.0,1.0,Reward,,MostlyReward
943,104820_fnca,16,2,Neutral,16,5,2.0,0,524,14,1,0,1,0,2.0,3.0,0.0,Reward,,MostlyReward
944,104820_fnca,17,2,Reward,17,5,2.0,0,410,14,2,0,2,0,,2.0,,Neutral,,MostlyReward
945,104820_fnca,19,2,Punishment,18,5,2.0,0,790,14,3,0,3,0,2.0,,0.0,,,MostlyPunishment
946,104820_fnca,20,2,Punishment,19,5,2.0,0,290,13,4,0,4,0,3.0,2.0,1.0,Punishment,,MostlyPunishment
947,104820_fnca,21,2,Reward,20,5,3.0,0,296,13,1,1,0,0,2.0,2.0,1.0,Punishment,,MostlyPunishment
948,104820_fnca,22,2,Punishment,21,5,2.0,0,410,13,1,0,1,0,3.0,3.0,1.0,Reward,,MostlyPunishment
949,104820_fnca,23,2,Reward,22,5,3.0,0,266,14,1,1,0,0,2.0,2.0,1.0,Punishment,,MostlyPunishment
950,104820_fnca,24,2,Punishment,23,5,2.0,0,346,14,1,0,1,0,3.0,3.0,1.0,Reward,,MostlyPunishment
951,104820_fnca,25,2,Punishment,24,5,3.0,0,329,13,1,1,0,0,2.0,2.0,1.0,Punishment,,MostlyPunishment
952,104820_fnca,26,2,Punishment,25,5,2.0,0,410,13,1,0,1,0,,3.0,,Punishment,,MostlyPunishment
953,104820_fnca,28,2,Reward,26,5,2.0,0,455,13,2,0,2,0,3.0,,1.0,,MostlyReward,MostlyReward
954,104820_fnca,29,2,Reward,27,5,3.0,0,408,13,1,1,0,0,2.0,2.0,1.0,Reward,MostlyReward,MostlyReward
955,104820_fnca,30,2,Punishment,28,5,2.0,0,604,13,1,0,1,0,2.0,3.0,0.0,Reward,MostlyReward,MostlyReward
956,104820_fnca,31,2,Reward,29,5,2.0,0,503,13,2,0,2,0,3.0,2.0,1.0,Punishment,MostlyReward,MostlyReward
957,104820_fnca,32,2,Punishment,30,5,3.0,0,353,14,1,1,0,0,3.0,2.0,0.0,Reward,MostlyReward,MostlyReward
958,104820_fnca,33,2,Reward,31,5,3.0,0,290,13,2,2,0,0,2.0,3.0,1.0,Punishment,MostlyReward,MostlyReward
959,104820_fnca,34,2,Reward,32,5,2.0,0,358,13,1,0,1,0,2.0,3.0,0.0,Reward,MostlyReward,MostlyReward
960,104820_fnca,35,2,Reward,32,5,2.0,0,332,14,2,0,2,0,,2.0,,Reward,MostlyReward,MostlyReward
961,105014_fnca,1,1,Reward,2,5,3.0,0,555,27,1,1,0,0,2.0,,1.0,,MostlyReward,MostlyReward
962,105014_fnca,2,1,Reward,3,5,2.0,0,948,13,1,0,1,0,3.0,3.0,1.0,Reward,MostlyReward,MostlyReward
963,105014_fnca,3,1,Punishment,4,5,3.0,0,686,13,1,1,0,0,3.0,2.0,0.0,Reward,MostlyReward,MostlyReward
964,105014_fnca,4,1,Reward,5,5,3.0,0,1025,13,2,2,0,0,2.0,3.0,1.0,Punishment,MostlyReward,MostlyReward
965,105014_fnca,5,1,Reward,6,5,2.0,0,907,14,1,0,1,0,3.0,3.0,1.0,Reward,MostlyReward,MostlyReward
966,105014_fnca,6,1,Reward,7,5,3.0,0,766,13,1,1,0,0,2.0,2.0,1.0,Reward,MostlyReward,MostlyReward
967,105014_fnca,7,1,Neutral,8,5,2.0,0,764,14,1,0,1,0,2.0,3.0,0.0,Reward,MostlyReward,MostlyReward
968,105014_fnca,8,1,Reward,9,5,2.0,0,560,14,2,0,2,0,,2.0,,Neutral,MostlyReward,MostlyReward
969,105014_fnca,10,1,Reward,10,5,3.0,0,723,13,1,1,0,0,3.0,,0.0,,MostlyPunishment,MostlyPunishment
970,105014_fnca,11,1,Punishment,11,5,3.0,0,1159,13,2,2,0,0,3.0,3.0,0.0,Reward,MostlyPunishment,MostlyPunishment
971,105014_fnca,12,1,Punishment,12,5,3.0,0,1488,14,3,3,0,0,3.0,3.0,0.0,Punishment,MostlyPunishment,MostlyPunishment
972,105014_fnca,13,1,Punishment,13,5,3.0,0,1224,13,4,4,0,0,3.0,3.0,0.0,Punishment,MostlyPunishment,MostlyPunishment
973,105014_fnca,14,1,Neutral,14,5,3.0,0,1193,13,5,5,0,0,3.0,3.0,0.0,Punishment,MostlyPunishment,MostlyPunishment
974,105014_fnca,15,1,Punishment,15,5,3.0,0,1275,13,6,6,0,0,2.0,3.0,1.0,Neutral,MostlyPunishment,MostlyPunishment
975,105014_fnca,16,1,Punishment,16,5,2.0,0,932,13,1,0,1,0,3.0,3.0,1.0,Punishment,MostlyPunishment,MostlyPunishment
976,105014_fnca,17,1,Punishment,17,5,3.0,0,713,14,1,1,0,0,,2.0,,Punishment,MostlyPunishment,MostlyPunishment
977,105014_fnca,19,1,Punishment,18,5,2.0,0,651,14,1,0,1,0,2.0,,0.0,,MostlyPunishment,MostlyPunishment
978,105014_fnca,20,1,Punishment,19,5,2.0,0,1033,14,2,0,2,0,3.0,2.0,1.0,Punishment,MostlyPunishment,MostlyPunishment
979,105014_fnca,21,1,Punishment,20,5,3.0,0,871,13,1,1,0,0,3.0,2.0,0.0,Punishment,MostlyPunishment,MostlyPunishment
980,105014_fnca,22,1,Neutral,21,5,3.0,0,1320,13,2,2,0,0,3.0,3.0,0.0,Punishment,MostlyPunishment,MostlyPunishment
981,105014_fnca,23,1,Punishment,22,5,3.0,0,1045,14,3,3,0,0,3.0,3.0,0.0,Neutral,MostlyPunishment,MostlyPunishment
982,105014_fnca,24,1,Neutral,23,5,3.0,0,1186,13,4,4,0,0,3.0,3.0,0.0,Punishment,MostlyPunishment,MostlyPunishment
983,105014_fnca,25,1,Punishment,24,5,3.0,0,849,14,5,5,0,0,3.0,3.0,0.0,Neutral,MostlyPunishment,MostlyPunishment
984,105014_fnca,26,1,Punishment,25,5,3.0,0,1410,14,6,6,0,0,,3.0,,Punishment,MostlyPunishment,MostlyPunishment
985,105014_fnca,28,1,Reward,26,5,2.0,0,1269,13,1,0,1,0,3.0,,1.0,,MostlyReward,MostlyReward
986,105014_fnca,29,1,Reward,27,5,3.0,0,1120,13,1,1,0,0,3.0,2.0,0.0,Reward,MostlyReward,MostlyReward
987,105014_fnca,30,1,Punishment,28,5,3.0,0,1069,13,2,2,0,0,2.0,3.0,1.0,Reward,MostlyReward,MostlyReward
988,105014_fnca,31,1,Reward,29,5,2.0,0,1065,14,1,0,1,0,3.0,3.0,1.0,Punishment,MostlyReward,MostlyReward
989,105014_fnca,32,1,Punishment,30,5,3.0,0,945,14,1,1,0,0,2.0,2.0,1.0,Reward,MostlyReward,MostlyReward
990,105014_fnca,33,1,Reward,31,5,2.0,0,687,13,1,0,1,0,2.0,3.0,0.0,Punishment,MostlyReward,MostlyReward
991,105014_fnca,34,1,Reward,32,5,2.0,0,719,13,2,0,2,0,3.0,2.0,1.0,Reward,MostlyReward,MostlyReward
992,105014_fnca,35,1,Reward,32,5,3.0,0,627,13,1,1,0,0,,2.0,,Reward,MostlyReward,MostlyReward
993,105014_fnca,1,2,Punishment,2,5,2.0,0,629,27,1,0,1,0,3.0,,1.0,,,MostlyPunishment
994,105014_fnca,2,2,Punishment,3,5,3.0,0,922,13,1,1,0,0,2.0,2.0,1.0,Punishment,,MostlyPunishment
995,105014_fnca,3,2,Reward,4,5,2.0,0,911,13,1,0,1,0,2.0,3.0,0.0,Punishment,,MostlyPunishment
996,105014_fnca,4,2,Punishment,5,5,2.0,0,698,13,2,0,2,0,3.0,2.0,1.0,Reward,,MostlyPunishment
997,105014_fnca,5,2,Reward,6,5,3.0,0,1266,13,1,1,0,0,3.0,2.0,0.0,Punishment,,MostlyPunishment
998,105014_fnca,6,2,Punishment,7,5,3.0,0,730,13,2,2,0,0,3.0,3.0,0.0,Reward,,MostlyPunishment
999,105014_fnca,7,2,Punishment,8,5,3.0,0,708,14,3,3,0,0,2.0,3.0,1.0,Punishment,,MostlyPunishment
1000,105014_fnca,8,2,Punishment,9,5,2.0,0,474,14,1,0,1,0,,3.0,,Punishment,,MostlyPunishment
1001,105014_fnca,10,2,Reward,10,5,3.0,0,491,13,1,1,0,0,3.0,,0.0,,,MostlyReward
1002,105014_fnca,11,2,Neutral,11,5,3.0,0,760,13,2,2,0,0,3.0,3.0,0.0,Reward,,MostlyReward
1003,105014_fnca,12,2,Reward,12,5,3.0,0,748,13,3,3,0,0,3.0,3.0,0.0,Neutral,,MostlyReward
1004,105014_fnca,13,2,Reward,13,5,3.0,0,792,14,4,4,0,0,2.0,3.0,1.0,Reward,,MostlyReward
1005,105014_fnca,14,2,Reward,14,5,2.0,0,694,14,1,0,1,0,2.0,3.0,0.0,Reward,,MostlyReward
1006,105014_fnca,15,2,Reward,15,5,2.0,0,694,13,2,0,2,0,3.0,2.0,1.0,Reward,,MostlyReward
1007,105014_fnca,16,2,Neutral,16,5,3.0,0,739,13,1,1,0,0,3.0,2.0,0.0,Reward,,MostlyReward
1008,105014_fnca,17,2,Reward,17,5,3.0,0,730,13,2,2,0,0,,3.0,,Neutral,,MostlyReward
1009,105014_fnca,19,2,Punishment,18,5,3.0,0,487,14,3,3,0,0,3.0,,0.0,,,MostlyPunishment
1010,105014_fnca,20,2,Punishment,19,5,3.0,0,777,13,4,4,0,0,3.0,3.0,0.0,Punishment,,MostlyPunishment
1011,105014_fnca,21,2,Reward,20,5,3.0,0,841,13,5,5,0,0,3.0,3.0,0.0,Punishment,,MostlyPunishment
